#timestamp [ns],w_RS_S_x [rad s^-1],w_RS_S_y [rad s^-1],w_RS_S_z [rad s^-1],a_RS_S_x [m s^-2],a_RS_S_y [m s^-2],a_RS_S_z [m s^-2]
1520531467566265223,-0.2143494012,0.0597384577,0.0849691160,0.0890973097,-0.1379034074,9.9242475970
1520531467571282223,-0.2221319220,0.0652709831,0.0852963690,0.0734639294,-0.1438978920,9.7895969107
1520531467576297223,-0.2291517059,0.0763357394,0.0872877357,0.0253612209,-0.1259070392,9.6959139126
1520531467581313223,-0.2323962875,0.0917734688,0.0890349020,-0.0179312168,-0.1055182803,9.6103167632
1520531467586328223,-0.2326285762,0.1072233062,0.0867182792,-0.0960981181,-0.1223001583,9.4542045288
1520531467591344223,-0.2288385900,0.1229624612,0.0857491414,-0.2380011082,-0.1162934043,9.4056076888
1520531467596359223,-0.2280586462,0.1427798182,0.0848167274,-0.2428113791,-0.1630595062,9.3638629309
1520531467601375223,-0.2267816836,0.1617377871,0.0784657929,-0.3197757127,-0.2074217076,9.4541404045
1520531467606392223,-0.2199872375,0.1710756767,0.0744661416,-0.3305988221,-0.2433950774,9.5553873542
1520531467611406223,-0.2164712925,0.1713771808,0.0712152798,-0.2464190822,-0.2493973357,9.6591668028
1520531467616422223,-0.2086950599,0.1623531400,0.0689675286,-0.1742650194,-0.2661909212,9.7909652810
1520531467621439223,-0.2014339625,0.1445895518,0.0658423806,-0.0215389199,-0.2410208671,9.8847499869
1520531467626455223,-0.1896550806,0.1201142368,0.0669864349,0.0866921743,-0.1918645392,9.9859172569
1520531467631471223,-0.1753663821,0.0918453515,0.0705318349,0.1600488048,-0.1618917418,10.0095790380
1520531467636486223,-0.1613247131,0.0673672804,0.0730244182,0.2261900290,-0.1379140847,9.9449939557
1520531467641502223,-0.1412461052,0.0484337058,0.0733836716,0.2466336801,-0.1331191152,9.8669266474
1520531467646517223,-0.1209082322,0.0364985572,0.0719019910,0.2995466595,-0.1199326916,9.7222929119
1520531467651533223,-0.0987997453,0.0312579292,0.0734441792,0.3296108523,-0.1499135437,9.6069772675
1520531467656550223,-0.0739221727,0.0306856357,0.0731229816,0.3139774720,-0.1858865388,9.4990851257
1520531467661565223,-0.0495439359,0.0347854957,0.0690506442,0.2827107115,-0.2182608951,9.3646123306
1520531467666580223,-0.0276800949,0.0380109460,0.0647057588,0.2153669196,-0.2818100925,9.2839797119
1520531467671596223,-0.0048055973,0.0473653349,0.0568885948,0.0518177106,-0.3645380440,9.2391665259
1520531467676611223,0.0143044437,0.0643117269,0.0426431303,-0.1177443369,-0.4712483356,9.1886245321
1520531467681628223,0.0309034803,0.0841775356,0.0259896508,-0.3101551710,-0.5587706009,9.1870962710
1520531467686647223,0.0439935305,0.1116216057,0.0080477762,-0.3859169369,-0.6738821810,9.2030538175
1520531467691660223,0.0530548410,0.1349927299,-0.0128937589,-0.4159811297,-0.8141792690,9.2848333334
1520531467696674223,0.0611009239,0.1504938928,-0.0330818127,-0.3630681504,-0.8453610411,9.4609945948
1520531467701690223,0.0631006942,0.1525788064,-0.0495732846,-0.1959112383,-0.8453740598,9.6011491544
1520531467706707223,0.0645821107,0.1409589807,-0.0626512113,-0.0792621701,-0.7998158088,9.7138594365
1520531467711723223,0.0658101544,0.1255408597,-0.0719699289,0.0193483823,-0.7182819401,9.7825487441
1520531467716736223,0.0637633040,0.1034159725,-0.0799809806,0.0494125752,-0.6019676605,9.8239798741
1520531467721754223,0.0624758895,0.0839072855,-0.0855385116,0.1804924559,-0.4712715633,9.8969537781
1520531467726770223,0.0659641996,0.0617627114,-0.0854434543,0.2358105707,-0.2938030890,9.9543494810
1520531467731786223,0.0712129970,0.0361018160,-0.0778030561,0.2490388155,-0.0971450898,10.0330547426
1520531467736802223,0.0784759174,0.0104293250,-0.0655671113,0.3079646335,0.0419506100,10.0858041734
1520531467741817223,0.0892571859,-0.0193401102,-0.0463346306,0.2863184146,0.1007101766,10.1068761579
1520531467746832223,0.1010414073,-0.0502725044,-0.0279245468,0.2081515133,0.0875257198,10.1227577207
1520531467751849223,0.1120766602,-0.0774164667,-0.0097547087,0.0698562263,0.0347743121,10.1229931092
1520531467756865223,0.1256263598,-0.1010519037,0.0043789508,-0.1129340661,-0.0323633153,10.1190270410
1520531467761880223,0.1364115214,-0.1200044183,0.0104369368,-0.2897115199,-0.1954326449,10.1429874496
1520531467766896223,0.1481992085,-0.1357279995,0.0078600411,-0.5218070885,-0.3692899299,10.1651725269
1520531467771912223,0.1519394565,-0.1488009480,-0.0063153851,-0.6216202087,-0.5335643941,10.3011129447
1520531467776928223,0.1529047813,-0.1656447675,-0.0272782250,-0.6336458858,-0.6330921127,10.3373535130
1520531467781943223,0.1556183775,-0.1894767560,-0.0499209613,-0.6456715629,-0.7002430398,10.3654275015
1520531467786959223,0.1525493290,-0.2153507006,-0.0725685246,-0.5891508804,-0.7662001651,10.4428053224
1520531467791974223,0.1522442578,-0.2421006295,-0.0941457075,-0.4604761351,-0.7182445698,10.4403439639
1520531467796989223,0.1506834374,-0.2694389188,-0.1138311816,-0.3354090930,-0.6211239361,10.3797625798
1520531467802006223,0.1503909430,-0.2892058171,-0.1315673680,-0.2596473271,-0.5335925858,10.2057803503
1520531467807022223,0.1533780903,-0.3002328133,-0.1481607455,-0.2043292123,-0.4904278389,10.0413375240
1520531467812038223,0.1571269711,-0.3033826624,-0.1682125966,-0.1201494724,-0.4112911271,9.9172537345
1520531467817052223,0.1581208953,-0.2983690003,-0.1903614345,-0.1009083890,-0.3825132555,9.7438789403
1520531467822068223,0.1631480520,-0.2840287295,-0.2127171472,-0.0900852795,-0.3441416049,9.6426296519
1520531467827085223,0.1671744553,-0.2670693056,-0.2339688016,-0.0997058212,-0.3837124896,9.5195746214
1520531467832100223,0.1691929809,-0.2463139293,-0.2584343728,-0.0696416284,-0.4196890438,9.4344805665
1520531467837117223,0.1697152827,-0.2176946752,-0.2817549368,-0.1634419100,-0.4076903341,9.4051661247
1520531467842132223,0.1674683262,-0.1925723900,-0.3053675898,-0.1658470455,-0.3801099170,9.3633254577
1520531467847147223,0.1654743427,-0.1654066726,-0.3303178774,-0.1237571755,-0.3825114760,9.3768638468
1520531467852164223,0.1607137393,-0.1402831866,-0.3547375009,0.0001072989,-0.3381529273,9.4000199835
1520531467857180223,0.1526859846,-0.1163308893,-0.3775366739,0.0830844711,-0.2901937729,9.4967856532
1520531467862195223,0.1439073638,-0.0920962440,-0.3970856729,0.0842870388,-0.2662110581,9.5304527360
1520531467867210223,0.1338691205,-0.0719494872,-0.4136874566,0.2069489456,-0.1451074286,9.6070043619
1520531467872227223,0.1250949689,-0.0512420503,-0.4219002050,0.3296108523,-0.0311986417,9.6056993589
1520531467877242223,0.1160720629,-0.0314212488,-0.4255198757,0.4282214047,0.1342750566,9.5941188799
1520531467882258223,0.1093165113,-0.0113256590,-0.4226484224,0.4955651967,0.2757683816,9.6037847103
1520531467887274223,0.1010667941,0.0145780913,-0.4126955137,0.5172114155,0.3800919125,9.5105007704
1520531467892290223,0.0918217727,0.0448391040,-0.3978375656,0.5148062801,0.4460448231,9.4384069417
1520531467897304223,0.0843390931,0.0753827209,-0.3794635650,0.5424653375,0.4976057072,9.3404673517
1520531467902321223,0.0766101250,0.1076658052,-0.3578292083,0.5111985769,0.4880150189,9.3396188939
1520531467907336223,0.0656119434,0.1393699396,-0.3380870517,0.4799318164,0.4256621521,9.3109304322
1520531467912353223,0.0553638320,0.1687454784,-0.3191757176,0.4510701913,0.3105469193,9.3043507464
1520531467917368223,0.0425993019,0.1960825263,-0.3010869155,0.3933469411,0.2170184619,9.3805431546
1520531467922384223,0.0240428984,0.2184812551,-0.2895182728,0.3332185554,0.1102996472,9.4521232598
1520531467927400223,0.0029619884,0.2356486465,-0.2833958963,0.2466336801,0.0023837527,9.5867178191
1520531467932416223,-0.0193818334,0.2502025544,-0.2808082906,0.1913155653,-0.0311878708,9.7139626842
1520531467937431223,-0.0447523634,0.2598163126,-0.2836637946,0.1660616433,-0.0587661337,9.8130176213
1520531467942447223,-0.0726399706,0.2673937650,-0.2881534683,0.2009361070,-0.0227946372,9.8742367241
1520531467947461223,-0.0960068452,0.2705912953,-0.2886267009,0.2827107115,0.0923164746,9.9488678807
1520531467952479223,-0.1168638600,0.2697024140,-0.2861597191,0.3644853160,0.2469992204,9.8921381823
1520531467957495223,-0.1357077243,0.2664635766,-0.2764095165,0.4630958684,0.4196677612,9.8119841939
1520531467962509223,-0.1475087174,0.2652548042,-0.2620575404,0.4895523581,0.5923419217,9.7778561232
1520531467967525223,-0.1600609685,0.2655004738,-0.2468814110,0.5003754675,0.7038611381,9.7811284610
1520531467972542223,-0.1703452027,0.2674822249,-0.2268263174,0.4979703321,0.7554243636,9.7462372709
1520531467977557223,-0.1763602186,0.2665481624,-0.2054486596,0.5075908738,0.7973935292,9.7774805903
1520531467982573223,-0.1816297004,0.2583246830,-0.1822341577,0.4943626290,0.8177799466,9.8624259758
1520531467987589223,-0.1879039815,0.2503921943,-0.1590155659,0.4498676236,0.8093894291,9.9639737723
1520531467992604223,-0.1951968735,0.2337228749,-0.1377556210,0.4390445142,0.7902040252,10.0384750403
1520531467997619223,-0.2014838685,0.2167589228,-0.1151470366,0.4294239725,0.7326460342,10.1176505979
1520531468002636223,-0.2057686940,0.1960179574,-0.0963587287,0.4354368110,0.6594980001,10.2280670780
1520531468007651223,-0.2100575261,0.1711925096,-0.0757077226,0.3825238317,0.5839562744,10.3007086940
1520531468012668223,-0.2153542273,0.1481317291,-0.0612640668,0.2983440917,0.5527851796,10.3701249441
1520531468017683223,-0.2231622897,0.1259426608,-0.0462679827,0.2550516541,0.4508616154,10.4798872516
1520531468022699223,-0.2292197363,0.1031970077,-0.0407487182,0.2382157061,0.4088930118,10.5393613910
1520531468027715223,-0.2322635296,0.0801662505,-0.0371310987,0.2574567895,0.4568571302,10.5391273365
1520531468032731223,-0.2340498174,0.0577180263,-0.0332408208,0.2887235500,0.5443919459,10.5050354686
1520531468037746223,-0.2353286736,0.0367174520,-0.0258232642,0.3488519357,0.6007468628,10.4021265889
1520531468042762223,-0.2330865784,0.0162944692,-0.0159728825,0.4210059985,0.7062656005,10.3420520420
1520531468047777223,-0.2240621435,-0.0064583883,-0.0056117953,0.4642984361,0.8549556412,10.2229469785
1520531468052794223,-0.2115136443,-0.0304001723,0.0139324260,0.4823369518,0.9269026618,10.1413511655
1520531468057810223,-0.1956896394,-0.0488080124,0.0348655479,0.5051857384,0.9544811120,10.0574275099
1520531468062824223,-0.1730818011,-0.0692579850,0.0576643280,0.4534753267,0.9329006117,10.0265739887
1520531468067841223,-0.1529895894,-0.0911636794,0.0796450222,0.4979703321,0.8885289506,9.9982927123
1520531468072857223,-0.1276108149,-0.1046098707,0.0989749257,0.4751215456,0.8429633941,9.9869381037
1520531468077872223,-0.1037407586,-0.1192243761,0.1191103749,0.3584724774,0.7326515601,9.9823703536
1520531468082888223,-0.0788706427,-0.1332360510,0.1319436642,0.3055594980,0.6427201494,9.9457844700
1520531468087904223,-0.0552526575,-0.1411160314,0.1399561458,0.2105566487,0.5228135062,9.9479882473
1520531468092919223,-0.0321463652,-0.1513076172,0.1406470370,0.1432128568,0.4196926748,9.9499064376
1520531468097934223,-0.0072761356,-0.1556606253,0.1375914803,0.1191615025,0.3225641737,9.9060737850
1520531468102951223,0.0150800983,-0.1591331800,0.1318418010,0.0927050128,0.2865920215,9.8575563303
1520531468107967223,0.0359234897,-0.1625895716,0.1198723666,0.0385894657,0.1966607044,9.8988457967
1520531468112982223,0.0504840615,-0.1651691719,0.1060274482,0.0518177106,0.0815421935,9.9150993130
1520531468117999223,0.0670477594,-0.1750413389,0.0953697696,0.1035281222,-0.0047999444,9.8670322859
1520531468123014223,0.0828610343,-0.1831691364,0.0860795592,0.1035281222,-0.0239861911,9.8682131393
1520531468128030223,0.0961586864,-0.1912891771,0.0735474652,0.0662485231,-0.0599575004,9.8976646750
1520531468133045223,0.1069402295,-0.2005706416,0.0591173249,-0.0143235136,-0.1151116846,9.9043134232
1520531468138062223,0.1152064988,-0.2107236020,0.0433324531,-0.0479954096,-0.1858583471,9.8977372921
1520531468143078223,0.1219697736,-0.2162099017,0.0256921297,-0.1117314984,-0.2434121235,9.9820881531
1520531468148092223,0.1244557386,-0.2234367127,0.0045293055,-0.1225546078,-0.3141605655,10.0299103917
1520531468153109223,0.1249323205,-0.2315457492,-0.0139309953,-0.1478085298,-0.3597259347,10.0557677998
1520531468158125223,0.1259124723,-0.2373162283,-0.0350799038,-0.0973006858,-0.3861109578,10.0285726019
1520531468163139223,0.1241311518,-0.2413409402,-0.0556692480,-0.0227414876,-0.3465451307,9.9987547014
1520531468168157223,0.1203448430,-0.2447989676,-0.0705689484,0.0650459554,-0.3153743169,9.9943833976
1520531468173172223,0.1173172646,-0.2468092467,-0.0819418370,0.1311871796,-0.2122533918,9.9913147684
1520531468178187223,0.1153021303,-0.2473796916,-0.0868123755,0.2141643518,-0.0863501099,9.9078721181
1520531468183204223,0.1132965343,-0.2441767063,-0.0862430960,0.2346080030,0.0443546041,9.8052770062
1520531468188219223,0.1140670102,-0.2345723764,-0.0818424000,0.3500545034,0.1882424635,9.6959336123
1520531468193235223,0.1150999934,-0.2206146625,-0.0709157230,0.4510701913,0.3824953447,9.6087623020
1520531468198250223,0.1163951780,-0.2017171534,-0.0548113482,0.4943626290,0.4880163302,9.5187529337
1520531468203266223,0.1194519086,-0.1845832878,-0.0327715692,0.5725295303,0.5191878933,9.5075024066
1520531468208281223,0.1202505997,-0.1654135302,-0.0096298446,0.6001885877,0.5359737050,9.5316218426
1520531468213296223,0.1205355709,-0.1511829380,0.0080641031,0.6290502128,0.5131877892,9.4895259563
1520531468218313223,0.1215689853,-0.1401536380,0.0243794672,0.6362656191,0.4808104358,9.4685687070
1520531468223329223,0.1195897579,-0.1282571933,0.0428714684,0.6230373742,0.4160578832,9.4675984630
1520531468228345223,0.1143370125,-0.1175108128,0.0551380890,0.5172114155,0.3249314531,9.4350152030
1520531468233361223,0.1055673615,-0.1050138613,0.0660718528,0.3945495088,0.2086243853,9.4723490073
1520531468238377223,0.0985576021,-0.0890064945,0.0721592005,0.3211928783,0.0791229328,9.5510529493
1520531468243392223,0.0872693136,-0.0709305157,0.0669071164,0.1889104299,-0.0395816665,9.5849963008
1520531468248407223,0.0732153384,-0.0508020880,0.0565353559,0.1167563671,-0.1786763360,9.6950757792
1520531468253424223,0.0566369901,-0.0353200434,0.0399101376,0.0409946012,-0.2877922140,9.8016747075
1520531468258439223,0.0330202085,-0.0207119954,0.0222091347,-0.0239440553,-0.3717269860,9.8581715441
1520531468263454223,0.0093886508,-0.0145431722,0.0003854739,-0.0900852795,-0.3753192559,9.8692781258
1520531468268471223,-0.0149929378,-0.0078020734,-0.0176446980,-0.1057186598,-0.3645257745,9.8798790631
1520531468273487223,-0.0403817917,-0.0033960868,-0.0343380582,-0.0744518993,-0.3249565757,9.8330503852
1520531468278503223,-0.0637464904,0.0088678717,-0.0471874864,-0.0323620293,-0.2410200242,9.8604503094
1520531468283518223,-0.0856001893,0.0217071772,-0.0570592638,0.0049175698,-0.1378968512,9.9018240718
1520531468288534223,-0.1094637142,0.0322022355,-0.0623458120,0.0145381115,-0.1079190899,9.9237819330
1520531468293550223,-0.1340772662,0.0447330480,-0.0662626689,-0.0010952688,-0.0923290468,9.9157838897
1520531468298564223,-0.1516534004,0.0560923380,-0.0669549356,-0.0275517585,-0.0551536332,9.9253023030
1520531468303582223,-0.1712387804,0.0686178353,-0.0681756680,0.0181458146,-0.0659494561,9.8481665340
1520531468308597223,-0.1888156634,0.0791015148,-0.0683335122,0.0518177106,-0.0443675509,9.7838998268
1520531468313612223,-0.2013674518,0.0881265986,-0.0671590768,0.1203640702,-0.0419746087,9.6856102078
1520531468318629223,-0.2146745011,0.0959851206,-0.0657215877,0.1865052944,-0.0491746026,9.5803804898
1520531468323645223,-0.2214491882,0.1029727772,-0.0645734485,0.2009361070,-0.0671628328,9.5442311066
1520531468328660223,-0.2272246665,0.1044194226,-0.0615755936,0.3260031491,-0.0611768713,9.4860628803
1520531468333675223,-0.2307398157,0.1061641661,-0.0607440833,0.3344211231,-0.0731689312,9.4697226230
1520531468338691223,-0.2327492811,0.1073311019,-0.0615430948,0.3524596388,-0.0899583020,9.4811848574
1520531468343707223,-0.2307351112,0.1084901433,-0.0588324773,0.3753084254,-0.0803669582,9.5344117285
1520531468348722223,-0.2284849007,0.1015043567,-0.0613249449,0.5208191186,-0.0384083762,9.6340610138
1520531468353739223,-0.2279988041,0.0883878793,-0.0598026418,0.6795580568,0.0730993200,9.7521080251
1520531468358754223,-0.2244928248,0.0729167404,-0.0491051637,0.7168376559,0.2133958461,9.8190127050
1520531468363769223,-0.2219952203,0.0507236960,-0.0311522104,0.7072171142,0.3453020420,9.9479756971
1520531468368786223,-0.2179944921,0.0229854667,-0.0097271994,0.6494938639,0.3728867674,10.0368335855
1520531468373801223,-0.2122403449,-0.0079529326,0.0100468153,0.6867734630,0.3752821448,10.0434412538
1520531468378818223,-0.2054715463,-0.0330683465,0.0317572460,0.6807606245,0.4112568258,10.0585725703
1520531468383833223,-0.1961853568,-0.0538069090,0.0516025344,0.5833526397,0.4484377654,10.0455387029
1520531468388849223,-0.1836344741,-0.0730734287,0.0663124989,0.5677192594,0.4580321063,10.0084929074
1520531468393865223,-0.1720765980,-0.0827217392,0.0800155085,0.5087934415,0.4160667809,9.8754608273
1520531468398880223,-0.1602598018,-0.0830288924,0.0875666345,0.5003754675,0.3033482367,9.8082483312
1520531468403897223,-0.1446776906,-0.0818572500,0.0875465900,0.4498676236,0.1978278131,9.6717098589
1520531468408911223,-0.1270805234,-0.0766025229,0.0864717514,0.4691087070,0.1150856254,9.5426052834
1520531468413926223,-0.1077148476,-0.0637681952,0.0843692623,0.4402470819,0.0311480436,9.4616179817
1520531468418943223,-0.0893600791,-0.0523788006,0.0776582444,0.3729032900,-0.0539856815,9.4170328738
1520531468423959223,-0.0730135881,-0.0389483166,0.0701548842,0.3632827482,-0.1223359364,9.4264903182
1520531468428976223,-0.0533963861,-0.0231876619,0.0634748790,0.3861315348,-0.1822947371,9.4855957308
1520531468433990223,-0.0342824442,-0.0088884972,0.0584079672,0.3548647743,-0.1906862849,9.4696382322
1520531468439007223,-0.0139201862,0.0013405175,0.0500610478,0.2610644926,-0.2590299836,9.5217522130
1520531468444023223,0.0056888771,0.0112742102,0.0430660350,0.2045438101,-0.2746144071,9.6257483640
1520531468449037223,0.0240364752,0.0177115247,0.0357761329,0.1384025859,-0.2722109749,9.6763619934
1520531468454054223,0.0423768165,0.0197824418,0.0268296091,0.0830844711,-0.2901937729,9.7001608452
1520531468459069223,0.0624722901,0.0189402029,0.0178575875,0.0169432469,-0.2949851833,9.7821593774
1520531468464084223,0.0752750403,0.0151849057,0.0075241404,0.0361843303,-0.2829952776,9.8133382899
1520531468469101223,0.0931061389,0.0117164062,-0.0003815049,0.0987178514,-0.2566190586,9.6906787863
1520531468474117223,0.1096857105,0.0102798218,-0.0055637961,0.1179589348,-0.2398325913,9.6195843535
1520531468479132223,0.1217430009,0.0088378231,-0.0093849568,0.1889104299,-0.2002664832,9.5491265297
1520531468484148223,0.1360709898,0.0102938018,-0.0069655316,0.2634696281,-0.1642980774,9.4797992427
1520531468489164223,0.1516503254,0.0079622739,-0.0045773400,0.3332185554,-0.1199353141,9.4802392278
1520531468494180223,0.1634625504,0.0059140979,0.0002549885,0.3596750451,-0.0911580044,9.5008722436
1520531468499195223,0.1742682981,0.0006501002,0.0088523726,0.4065751859,-0.1019539210,9.4853183991
1520531468504211223,0.1855677127,-0.0110234317,0.0171293694,0.3969546442,-0.0827669249,9.4900419059
1520531468509227223,0.1933542206,-0.0197888674,0.0270584065,0.4101828891,-0.1343309934,9.4795041363
1520531468514242223,0.2044124942,-0.0259349330,0.0386246594,0.3897392379,-0.1031517501,9.4599162722
1520531468519258223,0.2154701562,-0.0309081761,0.0474943457,0.4125880245,-0.0491922106,9.4061826340
1520531468524275223,0.2257779245,-0.0332607107,0.0569265318,0.3356236908,-0.0491862164,9.3755538708
1520531468529290223,0.2323172296,-0.0321057245,0.0617931154,0.2646721958,-0.0467824096,9.3739178426
1520531468534306223,0.2381038772,-0.0274427645,0.0623590419,0.2045438101,-0.0947433435,9.4175491953
1520531468539321223,0.2436380851,-0.0224834193,0.0610338370,0.1816950236,-0.1403089001,9.4945175272
1520531468544337223,0.2484151425,-0.0192697630,0.0586145101,0.1347948828,-0.1319112644,9.5275058697
1520531468549353223,0.2516841443,-0.0157631276,0.0553885690,0.1347948828,-0.1654871962,9.5275386112
1520531468554369223,0.2554536699,-0.0160544921,0.0559204369,0.2033412424,-0.1978693263,9.5152815556
1520531468559384223,0.2564518241,-0.0218847026,0.0569562918,0.2310002998,-0.1690921103,9.5614700334
1520531468564400223,0.2579521370,-0.0277132593,0.0574501216,0.2382157061,-0.1583004085,9.6136857569
1520531468569416223,0.2617136492,-0.0361735886,0.0617073856,0.2141643518,-0.1355148672,9.6592212548
1520531468574432223,0.2657250097,-0.0452144033,0.0651480990,0.2237848935,-0.1283207740,9.6602827423
1520531468579448223,0.2647082805,-0.0562990640,0.0693942230,0.2346080030,-0.1642958296,9.7113468109
1520531468584464223,0.2654592680,-0.0603868932,0.0726082504,0.2189746227,-0.1870782801,9.7545205204
1520531468589479223,0.2644593927,-0.0577706538,0.0747944922,0.1528333985,-0.1355100906,9.7620868807
1520531468594495223,0.2639641458,-0.0510631791,0.0726821895,0.0782742003,-0.0479670327,9.6988093149
1520531468599511223,0.2644822330,-0.0385283485,0.0708830274,0.0313740595,0.0299807475,9.6945412293
1520531468604526223,0.2635005367,-0.0192886223,0.0677850672,0.0121329761,0.0779478630,9.6970060245
1520531468609542223,0.2587505497,0.0022872591,0.0622769794,0.0121329761,0.0719521609,9.6702825602
1520531468614557223,0.2527472795,0.0259008831,0.0573278787,0.0013098666,0.1115246378,9.6447821506
1520531468619574223,0.2439777854,0.0477636600,0.0529116652,0.0157406792,0.1259131990,9.5958176117
1520531468624589223,0.2352048570,0.0661254520,0.0500920500,0.0638433877,0.1510914015,9.5802169820
1520531468629606223,0.2244218006,0.0841928866,0.0480855832,0.1287820442,0.1942553991,9.6248664269
1520531468634620223,0.2121164771,0.0917706158,0.0457313398,0.1468205599,0.2374230494,9.7001881119
1520531468639637223,0.1935285888,0.0970046094,0.0471586224,0.2069489456,0.2218295409,9.7379688110
1520531468644652223,0.1777088100,0.1031050985,0.0518339909,0.2153669196,0.1882529534,9.7960268148
1520531468649667223,0.1558539507,0.1089234950,0.0521896035,0.2706850343,0.1438804494,9.8710710047
1520531468654684223,0.1322408737,0.1132748100,0.0560544643,0.2911286855,0.1150994870,9.9243587048
1520531468659699223,0.1078714422,0.1179266838,0.0564058517,0.3031543626,0.1067045675,9.9567898704
1520531468664715223,0.0824956746,0.1228746474,0.0548675078,0.2658747635,0.0983134880,9.9734309278
1520531468669731223,0.0556076722,0.1252024732,0.0522297729,0.2899261178,0.1150995807,9.9964233350
1520531468674747223,0.0279637934,0.1260730810,0.0495823228,0.3115723366,0.1294875799,10.0659272492
1520531468679763223,0.0003118622,0.1205310438,0.0476976025,0.2261900290,0.0683380682,10.1214387104
1520531468684779223,-0.0306120543,0.1123703651,0.0439051205,0.2213797581,0.0575461790,10.1319553502
1520531468689793223,-0.0612911799,0.1007189979,0.0379211276,0.2718876021,0.0755293516,10.1930398273
1520531468694809223,-0.0907047081,0.0943064886,0.0344097297,0.3428390971,0.1150954597,10.2143913760
1520531468699826223,-0.1186010343,0.0925465244,0.0347187434,0.3909418056,0.1918367004,10.2742798216
1520531468704841223,-0.1500093892,0.0936917429,0.0377619810,0.2646721958,0.2554009771,10.3068247643
1520531468709857223,-0.1811765559,0.0904801320,0.0356310336,0.2406208415,0.2961736247,10.3569912979
1520531468714872223,-0.2121028913,0.0808639875,0.0312863444,0.2646721958,0.3225528408,10.3578936153
1520531468719889223,-0.2442744222,0.0764784320,0.0321243764,0.2779004406,0.3321449339,10.3240533303
1520531468724904223,-0.2772052598,0.0685981521,0.0321254938,0.2983440917,0.3165545162,10.3273559776
1520531468729920223,-0.3068658685,0.0633423413,0.0318700057,0.3260031491,0.2937686940,10.2782989327
1520531468734936223,-0.3342616200,0.0604184928,0.0316281018,0.2430259770,0.3129614033,10.2140078107
1520531468739951223,-0.3634097359,0.0609840135,0.0338510550,0.2550516541,0.2278214966,10.2000280558
1520531468744967223,-0.3887886713,0.0636009008,0.0322949265,0.1913155653,0.1906531075,10.1762796502
1520531468749983223,-0.4151755697,0.0656411812,0.0283013056,0.1816950236,0.1031166059,10.1752965085
1520531468754999223,-0.4400592464,0.0659410294,0.0215860869,0.1696693465,0.0335673979,10.1696706610
1520531468760014223,-0.4636901259,0.0630339548,0.0156557183,0.1756821850,-0.0395806362,10.1685213214
1520531468765029223,-0.4845663938,0.0543061001,0.0075113869,0.1937207007,-0.0887467985,10.1149350666
1520531468770047223,-0.5054423089,0.0461624713,-0.0011695901,0.2442285447,-0.0995429960,10.0761032278
1520531468775062223,-0.5240546919,0.0374282184,-0.0066126631,0.3091672012,-0.1127385983,10.0243496835
1520531468780078223,-0.5368854025,0.0283975611,-0.0093632348,0.2935338209,-0.1067416786,9.9675509488
1520531468785093223,-0.5477071690,0.0202505862,-0.0153574218,0.3211928783,-0.0719687605,9.9079784800
1520531468790108223,-0.5532422981,0.0155869962,-0.0156532691,0.3031543626,-0.0863570407,9.7640622376
1520531468795124223,-0.5537487300,0.0103309514,-0.0116341628,0.2815081438,-0.1175330058,9.6504132239
1520531468800141223,-0.5494835145,0.0047941338,-0.0108726980,0.2153669196,-0.1582986289,9.5883409860
1520531468805156223,-0.5359212539,-0.0013210816,-0.0104034941,0.1528333985,-0.2650172563,9.5135143631
1520531468810172223,-0.5183397488,-0.0074296226,-0.0118355790,0.1564411016,-0.3225762776,9.4798332015
1520531468815187223,-0.4987551097,-0.0179037733,-0.0149280193,0.1155537994,-0.4029155015,9.5058766862
1520531468820203223,-0.4703642304,-0.0196293001,-0.0193228319,0.1095409608,-0.4760625991,9.5292494203
1520531468825219223,-0.4402190932,-0.0228015907,-0.0272491236,0.0506151429,-0.4376855162,9.5042183822
1520531468830236223,-0.4085643557,-0.0233450024,-0.0373225751,0.0325766272,-0.4268918475,9.4276819330
1520531468835252223,-0.3748958835,-0.0212644373,-0.0476502984,0.0494125752,-0.3921180864,9.3995926965
1520531468840266223,-0.3399714543,-0.0229866758,-0.0523277917,0.1372000182,-0.3345661833,9.3696285002
1520531468845281223,-0.3025316139,-0.0217889855,-0.0588815426,0.1612513725,-0.3153818097,9.3844835610
1520531468850299223,-0.2618249828,-0.0229312895,-0.0616715031,0.1913155653,-0.3261764150,9.3249321170
1520531468855314223,-0.2233807940,-0.0264135686,-0.0614990429,0.1384025859,-0.3549516641,9.2778273015
1520531468860330223,-0.1869524059,-0.0333910643,-0.0621611636,0.0999204191,-0.3825288967,9.2712558944
1520531468865345223,-0.1490188594,-0.0403592281,-0.0660726354,0.1179589348,-0.4340933399,9.2269691299
1520531468870361223,-0.1110757196,-0.0394563676,-0.0712768134,0.0890973097,-0.5012429557,9.1889647837
1520531468875377223,-0.0733787351,-0.0362290851,-0.0740278269,0.0482100075,-0.5300191414,9.1754450924
1520531468880393223,-0.0369365237,-0.0297883240,-0.0799986036,0.0566279814,-0.5875785374,9.2067971720
1520531468885409223,-0.0022534902,-0.0227625693,-0.0870438507,0.0061201375,-0.5779814803,9.2200630132
1520531468890424223,0.0296711524,-0.0110742882,-0.0945894862,-0.0143235136,-0.6403351901,9.1959177817
1520531468895439223,0.0615863468,-0.0022816417,-0.1089210000,-0.1105289307,-0.7050812801,9.1841337471
1520531468900456223,0.0945029573,0.0053531448,-0.1259687319,-0.1141366338,-0.7146741226,9.1469896104
1520531468905471223,0.1254062760,0.0118259762,-0.1446448978,-0.0732493316,-0.7386601155,9.1745064802
1520531468910488223,0.1535478990,0.0185818248,-0.1606082477,0.0277663563,-0.6775118213,9.1874093466
1520531468915502223,0.1836971409,0.0232987693,-0.1765908930,0.0854896066,-0.6031696107,9.2867193849
1520531468920519223,0.2130903654,0.0230465845,-0.1869284668,0.1263769088,-0.5384192123,9.4047969520
1520531468925535223,0.2387097831,0.0149044160,-0.1894732320,0.1540359662,-0.4053167795,9.4950451675
1520531468930551223,0.2590537680,0.0061686698,-0.1887660915,0.2093540810,-0.3297752412,9.5967017345
1520531468935565223,0.2768866465,-0.0049158911,-0.1818495128,0.2574567895,-0.2434408771,9.6577429694
1520531468940582223,0.2889464615,-0.0145618193,-0.1689590743,0.2273925967,-0.1714901102,9.7602341034
1520531468945597223,0.2982432165,-0.0250909969,-0.1530941663,0.2153669196,-0.1523029268,9.7812510357
1520531468950613223,0.3067895054,-0.0335829634,-0.1364006588,0.1720744819,-0.1007365168,9.8641343569
1520531468955630223,0.3078016672,-0.0391669520,-0.1185887352,0.1985309716,-0.0407815562,9.9242498643
1520531468960645223,0.3058053273,-0.0392143593,-0.1012700641,0.1287820442,-0.0419752643,10.0237121630
1520531468965659223,0.2972744298,-0.0383836169,-0.0863675019,0.1215666379,-0.0119961918,10.1062653806
1520531468970677223,0.2842214746,-0.0360955388,-0.0722570611,0.1372000182,0.0143836799,10.1560596795
1520531468975691223,0.2671437784,-0.0367228812,-0.0581613835,0.1792898882,0.0179778231,10.1556464945
1520531468980708223,0.2528378927,-0.0318128346,-0.0440286012,0.1564411016,0.0407632707,10.1233066424
1520531468985723223,0.2319921686,-0.0303975916,-0.0315336365,0.1600488048,0.0899277471,10.1139264327
1520531468990739223,0.2119013525,-0.0284000126,-0.0187650800,0.1287820442,0.0995233056,10.1479235841
1520531468995754223,0.1882959556,-0.0255376712,-0.0030073152,0.1504282631,0.0911276368,10.1918825487
1520531469000772223,0.1624183587,-0.0287880066,0.0100025064,0.1480231276,0.0911278241,10.1965545347
1520531469005787223,0.1332700075,-0.0340756715,0.0216501043,0.1384025859,0.0299724118,10.2141399707
1520531469010803223,0.1043686505,-0.0399343521,0.0289640550,0.1299846119,0.0191808036,10.1991245588
1520531469015817223,0.0769779916,-0.0431677959,0.0354835754,0.1624539402,0.0023903089,10.2127706204
1520531469020834223,0.0480823585,-0.0431915016,0.0401365288,0.2334054352,-0.0455808340,10.1842353408
1520531469025850223,0.0184405717,-0.0376799251,0.0451036669,0.1396051536,-0.0191924392,10.1979061932
1520531469030865223,-0.0127187660,-0.0359416411,0.0443632414,0.0602356846,0.0299784997,10.1788743368
1520531469035882223,-0.0416212049,-0.0359427654,0.0406292720,0.0878947420,0.0455651710,10.1518606082
1520531469040897223,-0.0745419200,-0.0350756821,0.0385327148,0.1191615025,0.0263764891,10.2643029497
1520531469045912223,-0.1079587719,-0.0318886459,0.0405130642,0.2009361070,-0.0120023733,10.2612201368
1520531469050929223,-0.1403662964,-0.0269587362,0.0446692524,0.2081515133,-0.0863496416,10.2681952692
1520531469055945223,-0.1737819172,-0.0231903878,0.0471951398,0.2682798989,-0.1750907159,10.2746694112
1520531469060960223,-0.2046695974,-0.0106897170,0.0535706950,0.3163826074,-0.2194626580,10.3032980734
1520531469065975223,-0.2375671899,0.0000523893,0.0634537422,0.2947363886,-0.2986042400,10.3396124034
1520531469070991223,-0.2671995599,0.0131428772,0.0673964969,0.1768847527,-0.2830062358,10.3639871766
1520531469076007223,-0.2930686534,0.0206941654,0.0729132876,0.3187877429,-0.2866147090,10.3254208814
1520531469081024223,-0.3156712190,0.0261990290,0.0813844540,0.4378419465,-0.3537758450,10.2766796617
1520531469086039223,-0.3365166764,0.0287841807,0.0922650357,0.4727164101,-0.3537785612,10.2042872899
1520531469091055223,-0.3493228570,0.0305019716,0.1017712834,0.2863184146,-0.2806164781,10.1455987583
1520531469096070223,-0.3596278261,0.0287474424,0.1025887183,0.1744796173,-0.1750834104,10.0175864478
1520531469101086223,-0.3674290826,0.0229268978,0.0987710824,0.1372000182,-0.1223183283,9.8993591703
1520531469106102223,-0.3702120584,0.0127433818,0.0927463987,0.1083383931,-0.1007315529,9.7764317844
1520531469111117223,-0.3742536766,0.0037372950,0.0821336607,0.0975152837,-0.1127221142,9.7742245354
1520531469116133223,-0.3770505541,-0.0163518381,0.0754923003,0.1768847527,-0.1343128233,9.7688244739
1520531469121150223,-0.3783407481,-0.0408271738,0.0747668029,0.2322028675,-0.2290492251,9.7311898126
1520531469126164223,-0.3758595269,-0.0650147471,0.0759303491,0.2730901698,-0.3153905201,9.6797416991
1520531469131180223,-0.3733684577,-0.0845518230,0.0814581989,0.2791030083,-0.3993308180,9.6739543078
1520531469136196223,-0.3708688538,-0.0979705521,0.0873032795,0.3031543626,-0.4808742400,9.6552054185
1520531469141212223,-0.3630950990,-0.1140111314,0.0936596429,0.2430259770,-0.5516188420,9.6512110865
1520531469146227223,-0.3570758608,-0.1268478984,0.1003142732,0.3151800397,-0.5923952360,9.7086557384
1520531469151243223,-0.3477812032,-0.1335650389,0.1072800667,0.2610644926,-0.6463523403,9.6534521764
1520531469156260223,-0.3354754406,-0.1411442250,0.1101754019,0.1660616433,-0.6115698689,9.6438836694
1520531469161275223,-0.3191561064,-0.1519175961,0.1095217190,0.1251743411,-0.5588045058,9.6767702211
1520531469166290223,-0.3035841177,-0.1594933170,0.1115993491,0.1768847527,-0.5000506525,9.7308303719
1520531469171307223,-0.2880120348,-0.1647277636,0.1099071213,0.2418234092,-0.4856660250,9.7243735470
1520531469176322223,-0.2729339247,-0.1629662648,0.1071869975,0.1600488048,-0.4928544987,9.7472572420
1520531469181338223,-0.2523264014,-0.1594491938,0.1025761230,0.0746664971,-0.4436830915,9.7968504042
1520531469186353223,-0.2387669360,-0.1599938669,0.0903719084,0.1576436693,-0.4508843966,9.7739690362
1520531469191369223,-0.2234364606,-0.1535526348,0.0811937857,0.1612513725,-0.4700709243,9.7379261679
1520531469196385223,-0.2078539377,-0.1462356939,0.0714807738,0.1708719142,-0.4460888651,9.7343227088
1520531469201401223,-0.1902623453,-0.1403770732,0.0625645503,0.1504282631,-0.4592778176,9.6950216630
1520531469206417223,-0.1782054901,-0.1403541366,0.0557785002,0.1816950236,-0.5012501675,9.6703532354
1520531469211432223,-0.1638795514,-0.1339154836,0.0474138820,0.1059332577,-0.4640709138,9.7140537307
1520531469216447223,-0.1513307777,-0.1373692968,0.0332954823,0.0013098666,-0.4065040251,9.6220444260
1520531469221463223,-0.1450635534,-0.1411213264,0.0208098029,0.0963127160,-0.4185028285,9.5816185255
1520531469226479223,-0.1345183606,-0.1431350300,0.0126582620,0.1841001590,-0.4616787209,9.5633739933
1520531469231496223,-0.1297536132,-0.1457344956,0.0047835555,0.2706850343,-0.5444261536,9.5870169367
1520531469236512223,-0.1232248579,-0.1489349803,0.0039353291,0.2875209823,-0.6415578392,9.6020556538
1520531469241527223,-0.1177027445,-0.1512529640,-0.0001509119,0.3392313940,-0.6943240452,9.6515759773
1520531469246541223,-0.1109269949,-0.1550244644,-0.0053327856,0.3548647743,-0.7338968967,9.6630838393
1520531469251559223,-0.1089192387,-0.1550149356,-0.0085830701,0.3885366702,-0.7950556808,9.6883829010
1520531469256575223,-0.1023833090,-0.1517998616,-0.0112762100,0.3692955868,-0.8322275354,9.6467692491
1520531469261591223,-0.0965949325,-0.1409959736,-0.0187799755,0.3488519357,-0.8634035941,9.6121343193
1520531469266605223,-0.0895506343,-0.1307750907,-0.0260199750,0.3368262586,-0.8789914831,9.5448622219
1520531469271621223,-0.0857700571,-0.1196878901,-0.0308123247,0.3993597796,-0.8765980725,9.6093312817
1520531469276637223,-0.0794738492,-0.1056814890,-0.0372103862,0.3644853160,-0.9425480797,9.6678422397
1520531469281654223,-0.0711704615,-0.0937125352,-0.0441688349,0.3632827482,-0.9077729137,9.6701443218
1520531469286669223,-0.0656432828,-0.0901933588,-0.0517277108,0.3428390971,-0.8586065642,9.6854032363
1520531469291684223,-0.0641321340,-0.0831791433,-0.0592524422,0.3404339617,-0.8382209896,9.7132982225
1520531469296699223,-0.0575891161,-0.0729628280,-0.0648682329,0.3248005814,-0.8562068784,9.6820900416
1520531469301717223,-0.0517966075,-0.0604164602,-0.0701942927,0.3199903106,-0.8466133804,9.6902625148
1520531469306731223,-0.0447469501,-0.0493352639,-0.0722872509,0.3921443734,-0.8610086851,9.7197899863
1520531469311747223,-0.0386996810,-0.0394345683,-0.0689763166,0.4787292487,-0.9113793264,9.7294556301
1520531469316763223,-0.0321547853,-0.0330295615,-0.0659635387,0.5304396603,-1.0013188855,9.7220671494
1520531469321780223,-0.0261153923,-0.0292493978,-0.0621581974,0.5677192594,-0.9989235081,9.7042697946
1520531469326795223,-0.0193227654,-0.0269302319,-0.0567420963,0.5448704729,-0.9629475159,9.6661063600
1520531469331811223,-0.0097674352,-0.0257755211,-0.0513400216,0.5280345249,-0.9077857451,9.6627300093
1520531469336826223,-0.0022264121,-0.0278282846,-0.0454175751,0.5448704729,-0.8442326139,9.7020170580
1520531469341842223,0.0053091537,-0.0345461143,-0.0384485145,0.5328447958,-0.8394351157,9.6916701356
1520531469346857223,0.0133512768,-0.0383499018,-0.0314581565,0.5124011447,-0.8214464171,9.6767437101
1520531469351873223,0.0223914719,-0.0459347384,-0.0269334785,0.5412627698,-0.7962667160,9.6450603459
1520531469356890223,0.0306855995,-0.0485699756,-0.0210168784,0.5376550666,-0.7746819074,9.6160208141
1520531469361905223,0.0397313890,-0.0494413132,-0.0207698038,0.4919574935,-0.7159204676,9.6198947404
1520531469366921223,0.0490256664,-0.0505959242,-0.0235014239,0.4931600612,-0.7027300166,9.6454373397
1520531469371937223,0.0593277305,-0.0514660411,-0.0235272288,0.5316422281,-0.6559665372,9.6624493329
1520531469376952223,0.0718896376,-0.0532072402,-0.0243755412,0.5448704729,-0.6307856186,9.6332424223
1520531469381969223,0.0824347363,-0.0575622180,-0.0287572241,0.5232242541,-0.6139959668,9.6008967119
1520531469386984223,0.0932352660,-0.0601746177,-0.0309616682,0.5039831707,-0.5996047831,9.6150156882
1520531469391999223,0.1035345623,-0.0616209478,-0.0334268323,0.5003754675,-0.6067993447,9.6417871303
1520531469397015223,0.1160943601,-0.0639405454,-0.0359028662,0.5352499312,-0.5828192524,9.5961006827
1520531469402032223,0.1276548982,-0.0633532474,-0.0359198893,0.5352499312,-0.5804209715,9.6100440714
1520531469407048223,0.1412255603,-0.0639350704,-0.0343262632,0.5124011447,-0.5732243494,9.6857988085
1520531469412063223,0.1553031286,-0.0624821039,-0.0308241876,0.4847420873,-0.5420445442,9.6720918945
1520531469417078223,0.1676231889,-0.0598642884,-0.0273099526,0.4414496496,-0.5312489087,9.6666920327
1520531469422094223,0.1791871142,-0.0569466426,-0.0270386452,0.4041700505,-0.5096614776,9.6693581293
1520531469427110223,0.1907573357,-0.0476105245,-0.0296944347,0.3187877429,-0.5396333383,9.6423269669
1520531469432125223,0.2008200348,-0.0356416099,-0.0363856045,0.3260031491,-0.5804046747,9.6701879490
1520531469437141223,0.2078679829,-0.0233839490,-0.0425278588,0.3969546442,-0.6031938687,9.7566803647
1520531469442157223,0.2151630037,-0.0152099437,-0.0470784276,0.4306265402,-0.5516334529,9.7539780536
1520531469447172223,0.2204442466,-0.0093670739,-0.0519135932,0.3596750451,-0.5228485568,9.7151276933
1520531469452188223,0.2232023826,-0.0108090733,-0.0570702146,0.3067620657,-0.4952642061,9.7365344122
1520531469457205223,0.2229495940,-0.0096334356,-0.0608484981,0.3067620657,-0.5312384188,9.6842730144
1520531469462220223,0.2232019553,-0.0064171809,-0.0648826993,0.2598619249,-0.5780012425,9.6731536763
1520531469467236223,0.2232030727,0.0008965695,-0.0756489580,0.2538490864,-0.6727328677,9.6686560036
1520531469472252223,0.2232138264,0.0157885030,-0.0871690542,0.2875209823,-0.6739346306,9.6601944237
1520531469477268223,0.2161988490,0.0344474677,-0.0918835346,0.3067620657,-0.7326940099,9.6391458492
1520531469482284223,0.2084441396,0.0627181843,-0.0951705235,0.3175851752,-0.7842578910,9.6786036797
1520531469487299223,0.2016949783,0.0915735207,-0.0989960250,0.3428390971,-0.8082426664,9.7004619955
1520531469492314223,0.1931830674,0.1154644329,-0.0990684093,0.4005623473,-0.8610093407,9.7940852640
1520531469497330223,0.1829117472,0.1355506315,-0.0932144170,0.4318291079,-0.8789988822,9.8670135417
1520531469502346223,0.1681143194,0.1533025249,-0.0868287165,0.4462599204,-0.9149742188,9.9099074875
1520531469507361223,0.1558278139,0.1701841630,-0.0815365361,0.4282214047,-0.9257650777,9.8333920864
1520531469512377223,0.1422903969,0.1893883723,-0.0732482325,0.3789161285,-0.9341552206,9.9036088164
1520531469517393223,0.1232337793,0.2164621683,-0.0665129131,0.4486650559,-0.9437537763,9.9110742855
1520531469522410223,0.1071751450,0.2289606352,-0.0571888897,0.5665166917,-0.9377672529,9.7890583720
1520531469527425223,0.0901034315,0.2324112193,-0.0425209971,0.5424653375,-0.8957954648,9.8055215616
1520531469532441223,0.0717717895,0.2323603261,-0.0262541725,0.4210059985,-0.8598117925,9.8763973294
1520531469537457223,0.0531929063,0.2390279326,-0.0161583059,0.3055594980,-0.8202311671,9.9088603134
1520531469542472223,0.0348606645,0.2445402975,-0.0098594409,0.2334054352,-0.7482771221,9.8502231148
1520531469547487223,0.0157746164,0.2509301627,-0.0049052359,0.2959389563,-0.7231000436,9.8577249034
1520531469552505223,-0.0030599133,0.2573193979,0.0003190482,0.4234111339,-0.7291056736,9.8739221734
1520531469557519223,-0.0229053151,0.2590439016,0.0063212676,0.4390445142,-0.6751455722,9.8795281072
1520531469562535223,-0.0409928522,0.2616512608,0.0093508843,0.3789161285,-0.6619503445,9.9730720136
1520531469567551223,-0.0593439590,0.2566890797,0.0098882544,0.3380288263,-0.5971935772,9.9989740082
1520531469572567223,-0.0799676187,0.2450299959,0.0082143269,0.3380288263,-0.5468296794,10.0465727981
1520531469577583223,-0.0998449483,0.2281277428,0.0059578920,0.4005623473,-0.4940723711,10.1063441698
1520531469582599223,-0.1227381736,0.2103472409,0.0047825720,0.4486650559,-0.4473096410,10.1174518029
1520531469587614223,-0.1448780748,0.1919835369,0.0038719516,0.4282214047,-0.3933467297,10.1443274795
1520531469592630223,-0.1677716569,0.1721553305,0.0056570749,0.3416365294,-0.3537683522,10.1486180873
1520531469597645223,-0.1926728068,0.1570001439,0.0031527670,0.2899261178,-0.3405737802,10.1665407013
1520531469602661223,-0.2145614484,0.1403928582,-0.0007209865,0.2983440917,-0.3309813124,10.1629629793
1520531469607677223,-0.2361968113,0.1252425937,-0.0045840913,0.3187877429,-0.3645588365,10.1105002569
1520531469612692223,-0.2628556966,0.1083260274,-0.0024991904,0.3921443734,-0.4317164135,10.0319880865
1520531469617709223,-0.2875144040,0.0817850897,0.0030257115,0.4546778944,-0.5324490794,10.0303155041
1520531469622724223,-0.3091500571,0.0566840453,0.0153197756,0.4618933007,-0.5264539392,10.0418608666
1520531469627741223,-0.3315424294,0.0269088983,0.0319084048,0.4450573527,-0.5264526280,10.0013496990
1520531469632756223,-0.3524281065,-0.0028620159,0.0471415042,0.4005623473,-0.4916740903,9.9494523973
1520531469637772223,-0.3750722559,-0.0308794846,0.0602268420,0.3560673420,-0.4640903951,9.9370750061
1520531469642788223,-0.3894198901,-0.0553934479,0.0719707255,0.3223954460,-0.4688843343,9.9281102734
1520531469647802223,-0.3989915136,-0.0740559970,0.0756338261,0.3260031491,-0.5024605472,9.8362985274
1520531469652819223,-0.4090613791,-0.0895135132,0.0793223140,0.3127749043,-0.5312388871,9.8620225141
1520531469657835223,-0.4110900742,-0.1037957848,0.0805698461,0.3211928783,-0.5983914064,9.7643859696
1520531469662850223,-0.4103475783,-0.1142948020,0.0840055115,0.3320159877,-0.6583492705,9.7143669010
1520531469667866223,-0.4078493386,-0.1288797977,0.0901122456,0.3704981545,-0.7362963951,9.6617718683
1520531469672881223,-0.4023303303,-0.1428954116,0.1016287431,0.4330316756,-0.8346307802,9.5961790298
1520531469677897223,-0.3932954670,-0.1574873170,0.1112404391,0.4246137016,-0.8945871457,9.5277529388
1520531469682914223,-0.3852577975,-0.1683010871,0.1243999987,0.3091672012,-0.9341497883,9.5893466981
1520531469687928223,-0.3747073985,-0.1773568243,0.1343216788,0.2021386747,-0.9353405930,9.4335001836
1520531469692945223,-0.3603897476,-0.1831840019,0.1361444352,0.2574567895,-0.9257517780,9.3701966228
1520531469697960223,-0.3438012101,-0.1814306535,0.1366680617,0.3668904514,-0.9785224797,9.4168308157
1520531469702977223,-0.3261906743,-0.1686101267,0.1394386658,0.2911286855,-0.9533346302,9.3850036474
1520531469707992223,-0.3020483017,-0.1560733256,0.1403010907,0.2297977321,-0.9017668154,9.3169838304
1520531469713007223,-0.2801749576,-0.1458546466,0.1360095595,0.2779004406,-0.8562032257,9.3617948074
1520531469718023223,-0.2570502158,-0.1367893586,0.1273780679,0.3500545034,-0.8765942325,9.4087602849
1520531469723040223,-0.2293974338,-0.1251034797,0.1201109126,0.3428390971,-0.8466151599,9.4053148499
1520531469728056223,-0.2024996028,-0.1137070955,0.1120312966,0.3296108523,-0.8178347595,9.4170369810
1520531469733071223,-0.1738471611,-0.1031732492,0.0998835559,0.3296108523,-0.8106399170,9.4030842375
1520531469738086223,-0.1446959440,-0.0935046184,0.0844816618,0.3632827482,-0.7842614501,9.4131900660
1520531469743103223,-0.1155543163,-0.0902435334,0.0679486762,0.3741058577,-0.8094442420,9.3921906855
1520531469748117223,-0.0854045883,-0.0843574086,0.0506221937,0.3969546442,-0.8154417236,9.3652448251
1520531469753134223,-0.0565071360,-0.0773149792,0.0365534880,0.4186008630,-0.8034520053,9.3801303121
1520531469758150223,-0.0291114981,-0.0676586924,0.0254835953,0.3380288263,-0.8046448705,9.3727807126
1520531469763165223,-0.0042251986,-0.0559666123,0.0155161149,0.2983440917,-0.8310228690,9.4312999026
1520531469768181223,0.0229289964,-0.0387329695,0.0039633973,0.2923312532,-0.8274249794,9.4848135418
1520531469773197223,0.0470674760,-0.0206219839,-0.0092003257,0.2995466595,-0.8765902987,9.4998991257
1520531469778213223,0.0712015531,-0.0068868653,-0.0205035738,0.3175851752,-0.9125659163,9.5752979871
1520531469783229223,0.0925707588,0.0018732373,-0.0242641952,0.4258162693,-0.8801975543,9.6311580136
1520531469788245223,0.1099131537,0.0053832009,-0.0267046352,0.4931600612,-0.8742070972,9.6746581540
1520531469793260223,0.1259980351,0.0053836746,-0.0245701383,0.4931600612,-0.8790036588,9.7385807489
1520531469798275223,0.1405681216,-0.0022033666,-0.0184324529,0.5556935823,-0.8538265803,9.7263260903
1520531469803292223,0.1558894231,-0.0109520084,-0.0136577894,0.5496807438,-0.8262458822,9.7066012735
1520531469808308223,0.1621650213,-0.0194149953,-0.0080524632,0.5520858792,-0.8154538057,9.7402695140
1520531469813323223,0.1679348150,-0.0284529355,-0.0054266545,0.5051857384,-0.7482982893,9.7139312173
1520531469818339223,0.1742076572,-0.0331017001,-0.0095320804,0.4919574935,-0.7674835058,9.6780522197
1520531469823355223,0.1824879027,-0.0383251618,-0.0163511452,0.4775266810,-0.7506944160,9.7467428030
1520531469828371223,0.1887588121,-0.0432602118,-0.0223526154,0.5196165509,-0.7327105877,9.7614234573
1520531469833386223,0.1955416028,-0.0412011079,-0.0285722109,0.5364524989,-0.7566947074,9.7322293745
1520531469838402223,0.2010677189,-0.0408980878,-0.0320973524,0.5737320980,-0.7782821385,9.7330497098
1520531469843418223,0.2083532327,-0.0411807897,-0.0342774776,0.5881629106,-0.7974695092,9.7306036706
1520531469848432223,0.2108638883,-0.0432209537,-0.0337566147,0.5761372334,-0.7471046748,9.7690223594
1520531469853450223,0.2141311220,-0.0440989263,-0.0318755301,0.5821500720,-0.7171266325,9.7666103127
1520531469858465223,0.2216710944,-0.0449774106,-0.0291907421,0.5400602021,-0.7219199161,9.7937539780
1520531469863479223,0.2244354207,-0.0467326475,-0.0262332097,0.4943626290,-0.7135223741,9.8337034792
1520531469868496223,0.2246889620,-0.0455691962,-0.0254131464,0.4558804621,-0.6775451643,9.8549615520
1520531469873513223,0.2264474423,-0.0443956846,-0.0281129801,0.4811343841,-0.6811445524,9.8303142308
1520531469878529223,0.2246889268,-0.0423493978,-0.0307996104,0.4534753267,-0.6607570110,9.7933749618
1520531469883544223,0.2231872497,-0.0376871076,-0.0310317865,0.4594881653,-0.6403720921,9.7723779666
1520531469888559223,0.2204274122,-0.0321416866,-0.0347720565,0.4402470819,-0.6811413679,9.6877684964
1520531469893575223,0.2154126480,-0.0263268916,-0.0306600719,0.4546778944,-0.7375020918,9.6958180023
1520531469898590223,0.2101436839,-0.0216733626,-0.0281797883,0.4871472227,-0.7734788333,9.7350499404
1520531469903606223,0.2053774428,-0.0193616394,-0.0216600344,0.5316422281,-0.8298418986,9.7544282595
1520531469908622223,0.1955884831,-0.0138430133,-0.0164592215,0.5412627698,-0.8850031074,9.7787934317
1520531469913637223,0.1885647788,-0.0074484223,-0.0115274193,0.4510701913,-0.9293642785,9.7587959853
1520531469918654223,0.1790287487,0.0004064775,-0.0082031097,0.4534753267,-0.8957885340,9.7308483788
1520531469923670223,0.1684881899,0.0111857552,-0.0089128909,0.4186008630,-0.8909892562,9.7044538371
1520531469928685223,0.1604576790,0.0225611698,-0.0142221733,0.3308134200,-0.8274279765,9.6599227170
1520531469933702223,0.1511718227,0.0365665656,-0.0224851192,0.3127749043,-0.8226300100,9.6229050090
1520531469938717223,0.1428812666,0.0447512206,-0.0332293068,0.2839132792,-0.7818569877,9.5266882246
1520531469943732223,0.1358461971,0.0538178057,-0.0466746177,0.3127749043,-0.7506815845,9.5298633323
1520531469948747223,0.1318268469,0.0634705267,-0.0609327208,0.3524596388,-0.7099139009,9.4945729893
1520531469953764223,0.1303159490,0.0681634109,-0.0725278246,0.3248005814,-0.6631452702,9.4320408278
1520531469958780223,0.1313123234,0.0699492619,-0.0863141937,0.2610644926,-0.6043824255,9.3535781093
1520531469963794223,0.1348222625,0.0737830734,-0.1027951274,0.2297977321,-0.5348298458,9.3758953542
1520531469968812223,0.1410960496,0.0776194248,-0.1198222868,0.2358105707,-0.4700767312,9.3734493967
1520531469973828223,0.1483780272,0.0849586118,-0.1389890032,0.3031543626,-0.4077266742,9.3843545475
1520531469978843223,0.1566636986,0.0890834932,-0.1546649439,0.3777135608,-0.3789531109,9.3998707852
1520531469983859223,0.1646925629,0.0859090944,-0.1649850770,0.4246137016,-0.4077361338,9.4749817091
1520531469988876223,0.1729644462,0.0733959205,-0.1699658977,0.4546778944,-0.4269247221,9.5339771338
1520531469993890223,0.1824964617,0.0585295813,-0.1665799138,0.4727164101,-0.4676969014,9.5721920660
1520531469998905223,0.1905240675,0.0445295207,-0.1604790015,0.4630958684,-0.4976746627,9.5525584927
1520531470003922223,0.1998060504,0.0270245968,-0.1511605490,0.4655010038,-0.5144628160,9.6036857873
1520531470008936223,0.2108542446,0.0118383266,-0.1369577528,0.4582855976,-0.5240553774,9.6084139482
1520531470013952223,0.2163750956,-0.0027687975,-0.1221991507,0.4378419465,-0.5468374532,9.5633115374
1520531470018969223,0.2224009199,-0.0156274175,-0.1074281435,0.3765109931,-0.4976679192,9.6022113029
1520531470023986223,0.2291857021,-0.0241120604,-0.0937073738,0.3404339617,-0.4832754243,9.6176562939
1520531470029000223,0.2347117986,-0.0311264329,-0.0851135271,0.3211928783,-0.4892696279,9.6039036940
1520531470034016223,0.2397422052,-0.0328953523,-0.0767492773,0.3813212639,-0.4940708726,9.6347010053
1520531470039033223,0.2425219112,-0.0303111438,-0.0621249251,0.4642984361,-0.5132635819,9.7350185899
1520531470044049223,0.2450424933,-0.0312134501,-0.0513144258,0.4306265402,-0.4664944829,9.7260035756
1520531470049063223,0.2463025314,-0.0359078896,-0.0391777635,0.3897392379,-0.3981402943,9.6240662272
1520531470054079223,0.2445386645,-0.0481860642,-0.0246583876,0.3933469411,-0.3393826945,9.6646488528
1520531470059095223,0.2452929373,-0.0552117769,-0.0125385765,0.4077777536,-0.3453795206,9.7261078684
1520531470064110223,0.2427859629,-0.0558181119,-0.0041514327,0.3440416648,-0.3657599438,9.7616124338
1520531470069126223,0.2402789101,-0.0529118071,-0.0016896215,0.2334054352,-0.3741453100,9.7801296437
1520531470074143223,0.2390266461,-0.0473650668,-0.0057032377,0.1949232684,-0.4077182448,9.8107526898
1520531470079159223,0.2385233585,-0.0426798015,-0.0143242036,0.2141643518,-0.3465635817,9.7814521737
1520531470084174223,0.2365153593,-0.0350783679,-0.0240023218,0.2249874613,-0.3453652843,9.8441014324
1520531470089190223,0.2304881589,-0.0277764501,-0.0312402825,0.2947363886,-0.3897389122,9.7795478872
1520531470094206223,0.2319954696,-0.0274815611,-0.0323230434,0.3512570711,-0.4305140886,9.7430110445
1520531470099221223,0.2289710784,-0.0362344764,-0.0285964927,0.3680930191,-0.4101300127,9.7346922873
1520531470104238223,0.2269509102,-0.0473253584,-0.0221841346,0.3729032900,-0.3873467193,9.7334611056
1520531470109253223,0.2239348224,-0.0543496342,-0.0111395063,0.4378419465,-0.3633689684,9.6770227360
1520531470114267223,0.2158888455,-0.0631190873,-0.0019927032,0.4642984361,-0.3621718885,9.7976270267
1520531470119284223,0.2123698111,-0.0692643074,0.0071657066,0.4558804621,-0.3585738116,9.8186240452
1520531470124301223,0.2093592275,-0.0704528799,0.0152787918,0.3873341025,-0.3729581581,9.8204674095
1520531470129316223,0.2008111900,-0.0754192339,0.0187739646,0.3584724774,-0.3489731018,9.8765078538
1520531470134332223,0.1922609611,-0.0789148252,0.0171398808,0.3536622065,-0.3106002336,9.8451393684
1520531470139347223,0.1872356902,-0.0777483424,0.0160759240,0.3356236908,-0.2410486841,9.8010856523
1520531470144363223,0.1801933051,-0.0786092273,0.0101303133,0.3500545034,-0.1703005231,9.8450376709
1520531470149379223,0.1726559790,-0.0733490487,0.0034206831,0.3765109931,-0.1103455624,9.8691267157
1520531470154394223,0.1648745245,-0.0631368884,-0.0027095961,0.3596750451,-0.1547124468,9.9193060421
1520531470159410223,0.1568411910,-0.0564352812,-0.0037257136,0.3512570711,-0.1379238253,9.9426144859
1520531470164425223,0.1493078637,-0.0500175772,-0.0074504465,0.4029674828,-0.0755725507,9.9792389693
1520531470169442223,0.1422713279,-0.0473854899,-0.0120166508,0.4799318164,-0.1163493193,9.9308817011
1520531470174458223,0.1400099403,-0.0494362657,-0.0082403693,0.4847420873,-0.1079557110,9.8855030813
1520531470179473223,0.1379920616,-0.0581931578,-0.0028924102,0.4186008630,-0.0168158875,9.9615973466
1520531470184489223,0.1349676743,-0.0654825946,-0.0015896571,0.4787292487,0.1054917527,10.0387564662
1520531470189506223,0.1286660641,-0.0800564676,-0.0008775056,0.4751215456,0.1510593698,9.9236948950
1520531470194521223,0.1246213409,-0.1007601846,0.0041124949,0.3151800397,0.1342838606,9.8997008712
1520531470199536223,0.1251163643,-0.1089304093,0.0083780494,0.2730901698,0.1282914366,9.9628721684
1520531470204553223,0.1228597713,-0.1077774122,0.0127198766,0.3656878837,0.0803186078,9.9132076066
1520531470209568223,0.1248883292,-0.0955435734,0.0147033337,0.3416365294,0.0167660386,9.9925294716
1520531470214583223,0.1218843163,-0.0862168079,0.0134273436,0.2899261178,-0.0419878148,9.9291721691
1520531470219600223,0.1198830838,-0.0768816357,0.0091734818,0.2995466595,-0.0743653555,9.9360829646
1520531470224616223,0.1153636331,-0.0692862857,0.0013938520,0.3680930191,-0.0491887452,9.9086619093
1520531470229632223,0.1095936709,-0.0576135015,-0.0058112291,0.4161957276,-0.0911624064,9.8849917548
1520531470234647223,0.1065840322,-0.0503169580,-0.0106198774,0.5280345249,-0.1679161039,9.9316259244
1520531470239663223,0.0965301934,-0.0494365446,-0.0143821818,0.5881629106,-0.2686485825,9.9044095851
1520531470244678223,0.0904957284,-0.0494279811,-0.0184291689,0.6518989994,-0.2866406528,9.9677246747
1520531470249694223,0.0799415264,-0.0503113688,-0.0165224145,0.7745609061,-0.2650656785,9.9792932943
1520531470254710223,0.0691369039,-0.0511977687,-0.0135330098,0.7601300935,-0.2206963589,9.9375533071
1520531470259727223,0.0590831826,-0.0555863150,-0.0084073151,0.7841814478,-0.1847240194,9.9663377247
1520531470264741223,0.0502877627,-0.0573460809,-0.0054283134,0.8070302343,-0.1451541650,9.9904817634
1520531470269757223,0.0402406356,-0.0588295231,0.0029661628,0.7613326612,-0.1259643591,10.0153128692
1520531470274773223,0.0246622996,-0.0603063902,0.0081243563,0.6555067025,-0.1619303297,10.0431073053
1520531470279789223,0.0148726421,-0.0530292589,0.0095508651,0.6434810254,-0.2362760994,10.0479454307
1520531470284804223,0.0063408469,-0.0431218903,0.0082895891,0.6001885877,-0.2734460808,10.0472409183
1520531470289820223,-0.0029440489,-0.0311685695,0.0046103618,0.5713269626,-0.3166128882,10.0742932468
1520531470294835223,-0.0109716979,-0.0168756675,-0.0020294192,0.5568961500,-0.3322005897,10.0744489089
1520531470299851223,-0.0149845481,-0.0066591167,-0.0092488829,0.5677192594,-0.2854349562,9.9917857384
1520531470304867223,-0.0200057614,0.0012259641,-0.0164842643,0.6314553482,-0.2015000905,9.9260034552
1520531470309883223,-0.0230215119,0.0053231052,-0.0234817337,0.7216479267,-0.1859182895,9.8925703439
1520531470314898223,-0.0257900605,0.0044580666,-0.0272709116,0.8034225312,-0.1955177818,9.8325144131
1520531470319914223,-0.0255461556,-0.0019566651,-0.0256970108,0.8034225312,-0.2446825391,9.7825901660
1520531470324930223,-0.0227951979,-0.0112777017,-0.0265849212,0.7456992810,-0.2446780435,9.7494498340
1520531470329946223,-0.0225596866,-0.0202988686,-0.0309830379,0.7264581976,-0.2590662300,9.7670833063
1520531470334962223,-0.0165350696,-0.0249579297,-0.0313003545,0.6482912962,-0.2890386527,9.7051175949
1520531470339977223,-0.0087479657,-0.0243589968,-0.0361802029,0.5593012855,-0.2890317218,9.6955244735
1520531470344993223,-0.0007049879,-0.0205554640,-0.0407655181,0.5508833115,-0.2758405215,9.7083771297
1520531470350010223,0.0113697248,-0.0091765436,-0.0444888631,0.5075908738,-0.3801623666,9.6937923728
1520531470355025223,0.0201789210,0.0048308420,-0.0508915918,0.4546778944,-0.4161324583,9.6989910513
1520531470360040223,0.0289948877,0.0220354447,-0.0542938617,0.4137905922,-0.4269215377,9.6622109407
1520531470365055223,0.0388120862,0.0348631174,-0.0552964317,0.4041700505,-0.4568992990,9.6170102004
1520531470370073223,0.0493742113,0.0430376742,-0.0595825221,0.3584724774,-0.4640905824,9.5210040604
1520531470375089223,0.0609523129,0.0599578028,-0.0651565162,0.3356236908,-0.5180501219,9.4980361977
1520531470380104223,0.0710178699,0.0733807263,-0.0707543870,0.3332185554,-0.5288421984,9.4527465176
1520531470385119223,0.0818435255,0.0908811433,-0.0755108971,0.3680930191,-0.4329136807,9.4093141975
1520531470390136223,0.0914147099,0.1095451492,-0.0797150895,0.3753084254,-0.3118010599,9.4602601979
1520531470395150223,0.0992250422,0.1267508149,-0.0836565843,0.3861315348,-0.1858921584,9.5076799739
1520531470400166223,0.1009992237,0.1375312748,-0.0830365054,0.4883497904,-0.0875706048,9.5809663714
1520531470405182223,0.1062794473,0.1398651470,-0.0832990678,0.6146194003,-0.0180302945,9.6738031791
1520531470410198223,0.1047716935,0.1381082364,-0.0803336011,0.6254425097,0.0683069731,9.8014494761
1520531470415213223,0.1047702703,0.1313808971,-0.0709156258,0.6771529213,0.1846195667,9.8589399305
1520531470420230223,0.1020049952,0.1231875395,-0.0585276270,0.7168376559,0.2913399737,9.7887209552
1520531470425246223,0.0987400666,0.1158623112,-0.0439676583,0.6699375151,0.2877462051,9.7531544978
1520531470430261223,0.0974821846,0.1059146812,-0.0291608853,0.5821500720,0.2158046169,9.8819149622
1520531470435278223,0.0949568626,0.0913197037,-0.0200688119,0.5917706137,0.1102795104,9.9911657553
1520531470440293223,0.0906749148,0.0793501398,-0.0123061931,0.7060145464,0.1450456849,9.9272640906
1520531470445307223,0.0846654502,0.0854224176,0.0042549927,0.7192427913,0.2265862035,9.9096236606
1520531470450325223,0.0791506797,0.0915211159,0.0110755928,0.3644853160,0.1066997908,10.0131379662
1520531470455340223,0.0670723680,0.0807395331,0.0093924660,0.4306265402,0.0155599673,10.0613931040
1520531470460355223,0.0565043075,0.0696576869,0.0112214124,0.6446835931,0.0671063341,10.0801779135
1520531470465370223,0.0489732892,0.0693356684,0.0215139350,0.7024068433,0.1438468255,9.9040574960
1520531470470387223,0.0379245265,0.0690108146,0.0323540836,0.5448704729,0.1570496396,9.8846594045
1520531470475404223,0.0253557939,0.0634572024,0.0369344614,0.4691087070,0.0887045360,9.7622762163
1520531470480419223,0.0173133964,0.0631641242,0.0364060816,0.3488519357,-0.0300009999,9.7682110623
1520531470485435223,0.0097674924,0.0625987975,0.0288403521,0.3284082846,-0.0815624459,9.7417310189
1520531470490450223,-0.0015440559,0.0687513205,0.0148396528,0.3464468003,-0.1115423613,9.7055582140
1520531470495465223,-0.0098331575,0.0789800378,0.0024877515,0.3272057169,-0.0887571947,9.6929396939
1520531470500482223,-0.0183707039,0.0891991870,-0.0063465865,0.3368262586,-0.0515845909,9.5812439843
1520531470505498223,-0.0223804688,0.1037959753,-0.0170498005,0.2995466595,-0.0455859853,9.5699795549
1520531470510514223,-0.0301612097,0.1181035444,-0.0291009662,0.2490388155,-0.0575734558,9.5844285881
1520531470515528223,-0.0359376720,0.1292124988,-0.0433446868,0.3043569303,-0.0947511173,9.6385471708
1520531470520546223,-0.0429800021,0.1324492081,-0.0560228218,0.4137905922,-0.0635819894,9.7687738747
1520531470525562223,-0.0475170985,0.1257608888,-0.0617470155,0.5280345249,-0.0288158148,9.7966815824
1520531470530576223,-0.0535664494,0.1091350392,-0.0564516121,0.6531015671,0.1054781720,9.9092233980
1520531470535592223,-0.0606356893,0.0820204097,-0.0517754647,0.7288633330,0.1930095223,9.8700498672
1520531470540607223,-0.0659458492,0.0505160338,-0.0398311914,0.7048119787,0.1810199913,9.8912142529
1520531470545623223,-0.0684884681,0.0207581343,-0.0267965299,0.6927863016,0.1666312428,9.9378310937
1520531470550639223,-0.0705372827,-0.0133608666,-0.0173132449,0.6555067025,0.1822229718,9.9486380446
1520531470555655223,-0.0725744851,-0.0399082403,-0.0061488842,0.5917706137,0.1882236379,9.9248475429
1520531470560671223,-0.0741057379,-0.0609052709,-0.0000835904,0.4534753267,0.1558576173,9.8425508318
1520531470565685223,-0.0716100504,-0.0775306867,0.0062781280,0.4246137016,0.1558598652,9.8358588895
1520531470570703223,-0.0718809318,-0.0935642185,0.0088617840,0.4282214047,0.1426690395,9.7812158712
1520531470575718223,-0.0713916282,-0.1061059396,0.0133645381,0.4318291079,0.1342747756,9.7823510853
1520531470580737223,-0.0708987140,-0.1148545628,0.0160023710,0.4642984361,0.1246791234,9.7611258123
1520531470585750223,-0.0704010091,-0.1218628916,0.0216295474,0.4498676236,0.0863077538,9.8077894500
1520531470590766223,-0.0711631424,-0.1314949019,0.0275095954,0.4883497904,0.0455339822,9.8434811084
1520531470595781223,-0.0726740168,-0.1344122516,0.0285723485,0.4871472227,0.0083607228,9.8388804871
1520531470600798223,-0.0719217904,-0.1349918116,0.0274843186,0.4606907330,-0.0120226039,9.8077799904
1520531470605813223,-0.0731780611,-0.1335295538,0.0253334005,0.4426522173,-0.0300083054,9.8195945458
1520531470610829223,-0.0736773068,-0.1279796045,0.0202362005,0.4342342433,-0.0815706879,9.7860245881
1520531470615844223,-0.0774488905,-0.1256325227,0.0137678845,0.5316422281,-0.1379378743,9.7955907331
1520531470620861223,-0.0766940178,-0.1218303883,0.0086550124,0.5148062801,-0.1475296864,9.7783317993
1520531470625876223,-0.0766846872,-0.1136657941,0.0065528917,0.4931600612,-0.1583202644,9.7285808243
1520531470630892223,-0.0776809871,-0.1040366583,0.0014877484,0.4522727590,-0.1583170799,9.6778444623
1520531470635907223,-0.0789244106,-0.0929579827,-0.0008603539,0.4582855976,-0.1439278632,9.6417454423
1520531470640924223,-0.0779043882,-0.0818842484,-0.0010482894,0.4354368110,-0.1882942793,9.5548503074
1520531470645938223,-0.0786388786,-0.0661432234,-0.0033617557,0.3861315348,-0.2254637924,9.6006900784
1520531470650955223,-0.0806306551,-0.0509854598,-0.0056773345,0.3308134200,-0.2146672202,9.6198122902
1520531470655970223,-0.0818744236,-0.0375640530,-0.0123363864,0.3163826074,-0.2746231174,9.5979304828
1520531470660986223,-0.0821138749,-0.0241393387,-0.0200794887,0.3692955868,-0.3345842596,9.6160682305
1520531470666001223,-0.0821097741,-0.0177135821,-0.0257120447,0.4186008630,-0.3705623124,9.5726240771
1520531470671018223,-0.0813521336,-0.0133352345,-0.0283855575,0.4727164101,-0.3705665271,9.6046373802
1520531470676034223,-0.0831051527,-0.0083802014,-0.0291561357,0.4667035716,-0.3573755141,9.6256016340
1520531470681050223,-0.0805865817,-0.0060561534,-0.0261670134,0.4618933007,-0.3489811565,9.5838030865
1520531470686065223,-0.0795728987,-0.0011080500,-0.0239667206,0.4667035716,-0.3621720758,9.6093362960
1520531470691081223,-0.0783044434,0.0055848168,-0.0204008267,0.4871472227,-0.3765633531,9.6265835014
1520531470696096223,-0.0798051561,0.0096585104,-0.0184730819,0.4787292487,-0.3813592592,9.6487508493
1520531470701112223,-0.0752735953,0.0151944033,-0.0176276066,0.5027806029,-0.3537809027,9.6171119666
1520531470706129223,-0.0745062792,0.0253946140,-0.0180922905,0.5087934415,-0.3381925455,9.5844982092
1520531470711144223,-0.0739982283,0.0285963986,-0.0167160406,0.5039831707,-0.2866291326,9.5833326039
1520531470716159223,-0.0739969973,0.0291777108,-0.0161705026,0.5184139832,-0.2782362736,9.5552925029
1520531470721176223,-0.0729854274,0.0320839371,-0.0131741338,0.5568961500,-0.2602521643,9.5827918559
1520531470726191223,-0.0712314791,0.0297601060,-0.0156300986,0.5424653375,-0.2542553383,9.6015207732
1520531470731207223,-0.0729947893,0.0286026198,-0.0188822746,0.5340473635,-0.2338692955,9.5876371023
1520531470736223223,-0.0722421199,0.0294850815,-0.0218530104,0.5400602021,-0.1859041469,9.6212339782
1520531470741238223,-0.0709800313,0.0361990728,-0.0261329474,0.5424653375,-0.2062897214,9.6595811973
1520531470746253223,-0.0722303115,0.0446662142,-0.0325592458,0.5677192594,-0.2302744967,9.6442509065
1520531470751270223,-0.0724752279,0.0504989053,-0.0344081386,0.5629089886,-0.2242784199,9.7047233656
1520531470756285223,-0.0689512264,0.0586765328,-0.0408455279,0.5184139832,-0.1942964439,9.6772357643
1520531470761302223,-0.0669344023,0.0671442256,-0.0470073478,0.5352499312,-0.1907003339,9.6096640362
1520531470766316223,-0.0649227689,0.0721167610,-0.0537369365,0.5256293895,-0.1523270911,9.5771802271
1520531470771333223,-0.0603929213,0.0773656400,-0.0545169597,0.5689218272,-0.1691184288,9.5651537762
1520531470776349223,-0.0568691040,0.0823241975,-0.0558384309,0.5520858792,-0.1427360282,9.6024805281
1520531470781365223,-0.0521011106,0.0785431683,-0.0577700200,0.5244268218,-0.1595218400,9.5690639405
1520531470786380223,-0.0490904095,0.0744627811,-0.0569951062,0.5328447958,-0.1691156190,9.6119906861
1520531470791397223,-0.0435627134,0.0744678609,-0.0580875577,0.4847420873,-0.1631161704,9.6147773296
1520531470796411223,-0.0372814266,0.0750596472,-0.0605296926,0.5075908738,-0.1703127925,9.6145619495
1520531470801428223,-0.0350233439,0.0727309139,-0.0610927696,0.5869603429,-0.1811112379,9.6591235541
1520531470806443223,-0.0330214449,0.0663205135,-0.0608748654,0.6146194003,-0.1655245666,9.6774334396
1520531470811459223,-0.0315173568,0.0601867321,-0.0552428867,0.6086065617,-0.1811129238,9.6949393256
1520531470816473223,-0.0317744775,0.0505469061,-0.0463877672,0.5857577751,-0.2134879357,9.6487075357
1520531470821491223,-0.0317772218,0.0423604589,-0.0361692696,0.6242399420,-0.2230840562,9.6913416549
1520531470826506223,-0.0317834827,0.0327221882,-0.0278557086,0.6338604837,-0.2062968395,9.7098259470
1520531470831523223,-0.0342972787,0.0262845205,-0.0181602970,0.5797449366,-0.2062926248,9.6859476515
1520531470836538223,-0.0350462198,0.0239261969,-0.0081664834,0.5532884469,-0.2110871260,9.7152634389
1520531470841554223,-0.0362980605,0.0236175662,-0.0019438172,0.5087934415,-0.2314690478,9.6785277983
1520531470846568223,-0.0375543351,0.0236163455,-0.0016709377,0.4859446550,-0.2686406214,9.6625164285
1520531470851586223,-0.0330278786,0.0250713982,-0.0003154938,0.4859446550,-0.2218741449,9.6671194001
1520531470856601223,-0.0325256338,0.0244873692,0.0002202183,0.5051857384,-0.2182782221,9.6494964518
1520531470861616223,-0.0320243142,0.0227356168,0.0015586759,0.5063883061,-0.1859015244,9.6633989021
1520531470866631223,-0.0285118505,0.0183654988,0.0017893414,0.4703112747,-0.2014875401,9.6428466640
1520531470871649223,-0.0242461920,0.0142907029,0.0006681003,0.4691087070,-0.2326650974,9.6347537642
1520531470876665223,-0.0182221435,0.0105116229,-0.0018069143,0.4655010038,-0.2734355908,9.5906671667
1520531470881680223,-0.0114418619,0.0102374653,-0.0072326568,0.4462599204,-0.3585730623,9.5444517125
1520531470886696223,-0.0071733847,0.0093729982,-0.0102232652,0.3981572119,-0.4137297754,9.5112715297
1520531470891711223,0.0038820545,0.0105537948,-0.0142930971,0.4354368110,-0.4329189257,9.5027923747
1520531470896726223,0.0129231905,0.0099905956,-0.0202663550,0.4161957276,-0.3921466527,9.5157234815
1520531470901744223,0.0227249935,0.0126249089,-0.0232405543,0.4366393787,-0.3861525428,9.5248158005
1520531470906759223,0.0357953554,0.0173038359,-0.0275579889,0.4101828891,-0.3261934611,9.4866640943
1520531470911774223,0.0468478935,0.0173234650,-0.0332599885,0.4258162693,-0.2950170277,9.5329672839
1520531470916789223,0.0576501011,0.0182178776,-0.0392253981,0.4414496496,-0.2614423134,9.5978624381
1520531470921806223,0.0692052329,0.0167742251,-0.0425045335,0.5244268218,-0.1954960527,9.6632326810
1520531470926822223,0.0812634877,0.0147436299,-0.0441657732,0.4871472227,-0.1103541791,9.6937282574
1520531470931837223,0.0905577573,0.0106620619,-0.0420497980,0.5208191186,-0.0947679761,9.7340603528
1520531470936853223,0.0998511447,0.0051199291,-0.0385922088,0.5340473635,-0.0731844788,9.7803963073
1520531470941868223,0.1116540470,-0.0021658841,-0.0365053547,0.5785423689,-0.0851793484,9.8160013762
1520531470946884223,0.1214446219,-0.0112022490,-0.0338870136,0.6025937231,-0.0839820812,9.7983339464
1520531470951899223,0.1347639303,-0.0158817646,-0.0255603965,0.5701243949,-0.0875769736,9.8056263546
1520531470956916223,0.1430569171,-0.0182205183,-0.0215353946,0.5412627698,-0.1091592534,9.8221983395
1520531470961932223,0.1531120771,-0.0176418237,-0.0185736126,0.5580987177,-0.1163554072,9.8580679473
1520531470966946223,0.1596524329,-0.0176611168,-0.0104693705,0.6410758899,-0.0887816400,9.8735034190
1520531470971963223,0.1646918996,-0.0138988292,-0.0001690608,0.6579118379,-0.1103674789,9.8466312853
1520531470976979223,0.1697256503,-0.0130445595,0.0079446509,0.6422784577,-0.1463404740,9.8723856982
1520531470981995223,0.1699794464,-0.0151016351,0.0144217241,0.5977834523,-0.1823112213,9.9367717830
1520531470987011223,0.1709881074,-0.0162835333,0.0206335204,0.5917706137,-0.1535313828,9.8856679101
1520531470992027223,0.1719930361,-0.0174530481,0.0222460366,0.5941757491,-0.1619255531,9.8984362689
1520531470997042223,0.1717479393,-0.0133759485,0.0230892642,0.6254425097,-0.1595297074,9.9329939174
1520531471002057223,0.1679836907,-0.0101751093,0.0242029025,0.6242399420,-0.1895081243,9.9493048713
1520531471007074223,0.1639593105,-0.0095793469,0.0188038984,0.5881629106,-0.2158864038,9.8997095584
1520531471012090223,0.1614433898,-0.0060582220,0.0093661363,0.5568961500,-0.2554556027,9.8628638715
1520531471017104223,0.1584283880,-0.0010854704,0.0018342443,0.5689218272,-0.2794393477,9.8127980177
1520531471022121223,0.1536549138,0.0056407265,-0.0078454092,0.5773398012,-0.3046219522,9.8034434868
1520531471027138223,0.1508979893,0.0167377507,-0.0172249044,0.5580987177,-0.2710445218,9.8721645195
1520531471032153223,0.1431105562,0.0243354629,-0.0263511962,0.5833526397,-0.2542585227,9.8614430470
1520531471037168223,0.1373269980,0.0255162189,-0.0328246707,0.5580987177,-0.2590531176,9.9209628722
1520531471042184223,0.1310451506,0.0287313706,-0.0373878289,0.5953783168,-0.2266792296,9.9868106487
1520531471047199223,0.1247640442,0.0298951758,-0.0376378144,0.6855708953,-0.1895129010,10.0649223088
1520531471052215223,0.1159659820,0.0252171941,-0.0330577682,0.6879760307,-0.1799199649,10.0997538626
1520531471057231223,0.1059048315,0.0176336160,-0.0317441700,0.6903811662,-0.1463442204,10.1810477878
1520531471062247223,0.0971078239,0.0132448335,-0.0263502631,0.6951914370,-0.0983789781,10.2030349291
1520531471067262223,0.0878106807,0.0100184785,-0.0198643468,0.6567092702,-0.0911811384,10.2324560738
1520531471072279223,0.0757528179,0.0108769798,-0.0157770864,0.6531015671,-0.0647997681,10.1801689855
1520531471077294223,0.0621875189,0.0137825947,-0.0146474689,0.6663298119,-0.0156360410,10.1997487342
1520531471082310223,0.0496283796,0.0161000070,-0.0113597973,0.6771529213,-0.0372214116,10.1752594138
1520531471087325223,0.0342991040,0.0149233641,-0.0094463982,0.7228504944,-0.0120430218,10.1654929139
1520531471092342223,0.0219824701,0.0128795765,-0.0097096363,0.7348761716,0.0071422884,10.1874378890
1520531471097356223,0.0084102163,0.0093689044,-0.0064645595,0.7805737446,0.0431129420,10.1381479706
1520531471102372223,-0.0059193212,0.0035275891,-0.0035064131,0.7998148280,0.0826830774,10.1263006620
1520531471107389223,-0.0197396239,0.0002987335,0.0032584501,0.8370944272,0.0467059613,10.0667035437
1520531471112405223,-0.0305438975,-0.0014669190,0.0081350068,0.7998148280,0.0215269158,10.0403616457
1520531471117419223,-0.0390910921,-0.0032163884,0.0073258992,0.8142456406,-0.0360329484,10.0100615705
1520531471122436223,-0.0506432719,0.0020225473,0.0079284758,0.8154482083,-0.0995874845,9.9705989459
1520531471127452223,-0.0599348990,0.0090223311,0.0042114561,0.7757634738,-0.1091775171,9.8675637556
1520531471132468223,-0.0664580168,0.0186434734,0.0013209479,0.7072171142,-0.1499429529,9.7904070564
1520531471137483223,-0.0709745193,0.0285706281,-0.0067114431,0.7541172550,-0.1691328524,9.7295377830
1520531471142499223,-0.0749884280,0.0370345011,-0.0123209699,0.7288633330,-0.1475463579,9.6123860017
1520531471147514223,-0.0782461547,0.0463691810,-0.0165724981,0.7192427913,-0.1307576427,9.5752746649
1520531471152530223,-0.0799990365,0.0533726469,-0.0205740654,0.7649403644,-0.1127740954,9.5422723019
1520531471157546223,-0.0815032619,0.0574579955,-0.0229750549,0.7420915778,-0.1019800521,9.5064577114
1520531471162563223,-0.0817494093,0.0627093744,-0.0253694857,0.7324710361,-0.0696025114,9.5053576357
1520531471167577223,-0.0809900125,0.0670818945,-0.0258786314,0.7252556298,-0.0612079665,9.4566096346
1520531471172594223,-0.0789770657,0.0705865808,-0.0285611471,0.7204453590,-0.0672032939,9.4252844147
1520531471177610223,-0.0789705970,0.0758336876,-0.0293327693,0.7817763124,-0.0156450324,9.3676921215
1520531471182624223,-0.0761988729,0.0819567594,-0.0303734020,0.7974096926,-0.0192436712,9.3071119782
1520531471187641223,-0.0706647121,0.0857454674,-0.0298136780,0.7625352289,0.0071401342,9.2934799719
1520531471192656223,-0.0668902154,0.0889499887,-0.0289845873,0.7925994218,-0.0204424370,9.2688092173
1520531471197672223,-0.0621159336,0.0886604749,-0.0289956781,0.7962071249,-0.0036547521,9.2385419885
1520531471202688223,-0.0586007413,0.0866228900,-0.0292883197,0.8262713177,-0.0180467786,9.2010747877
1520531471207704223,-0.0523149774,0.0866144249,-0.0252417994,0.8370944272,-0.0144502003,9.1939930704
1520531471212721223,-0.0455341784,0.0828261706,-0.0242011174,0.8346892917,-0.0024586088,9.1254382938
1520531471217736223,-0.0380055046,0.0767166051,-0.0266967170,0.8310815886,-0.0108523107,9.0917794197
1520531471222751223,-0.0314751654,0.0746816585,-0.0275360511,0.8142456406,-0.0396303697,9.0559448921
1520531471227767223,-0.0282151374,0.0720714042,-0.0316203147,0.8130430729,-0.0816001908,9.0885375547
1520531471232784223,-0.0219375476,0.0694557754,-0.0332752659,0.8467149689,-0.0947933580,9.0463854935
1520531471237799223,-0.0164108238,0.0671224946,-0.0316800431,0.8527278074,-0.0995903880,9.0602773730
1520531471242814223,-0.0113936446,0.0612996869,-0.0328160229,0.8827920002,-0.1079867124,9.0867222429
1520531471247829223,-0.0053698196,0.0560578568,-0.0331377857,0.9513383599,-0.1259791574,9.0744511553
1520531471252846223,-0.0011023656,0.0502209135,-0.0291319932,0.9260844379,-0.1751419479,9.0398805857
1520531471257862223,0.0021608183,0.0455512998,-0.0259270792,0.8491201043,-0.2278981323,9.0220868570
1520531471262877223,0.0044212297,0.0438002366,-0.0245918888,0.8503226720,-0.2794612642,9.0151525698
1520531471267892223,0.0074375174,0.0435063914,-0.0232469831,0.8370944272,-0.3598026423,9.0525482777
1520531471272909223,0.0134707162,0.0461363141,-0.0251319979,0.8214610469,-0.3729919693,9.0259839952
1520531471277925223,0.0154831376,0.0502281400,-0.0294333428,0.7962071249,-0.3466089132,9.0320147957
1520531471282941223,0.0192527141,0.0525708911,-0.0332102016,0.7613326612,-0.3070345631,9.0241806465
1520531471287956223,0.0242823877,0.0557802753,-0.0340067198,0.7553198227,-0.2950426905,9.0893075398
1520531471292972223,0.0267967011,0.0587038463,-0.0372357069,0.7469018487,-0.2782540690,9.1742096131
1520531471297987223,0.0288067467,0.0610473651,-0.0415503903,0.7829788801,-0.2698628958,9.2586867847
1520531471303003223,0.0343335646,0.0610553585,-0.0437250254,0.8250687500,-0.2302945399,9.2919406942
1520531471308020223,0.0368435617,0.0590173798,-0.0440158001,0.8888048388,-0.2231046614,9.3645283793
1520531471313034223,0.0388516196,0.0569770189,-0.0434940037,0.9116536254,-0.2135133175,9.4491331372
1520531471318051223,0.0401076237,0.0543448524,-0.0397287026,0.9381101150,-0.1895325696,9.4953379973
1520531471323067223,0.0446243105,0.0476367678,-0.0368122297,1.0006436361,-0.1895374399,9.5063507739
1520531471328083223,0.0456263812,0.0450132440,-0.0362930126,1.0246949904,-0.1247857302,9.5246478317
1520531471333098223,0.0468798762,0.0400478160,-0.0317338584,1.0138718810,-0.1055986405,9.5026537327
1520531471338114223,0.0468704554,0.0310054260,-0.0282856774,0.9886179590,-0.1823416607,9.5866487413
1520531471343129223,0.0488731895,0.0248849533,-0.0275244583,1.0018462038,-0.1727495676,9.6434556847
1520531471348145223,0.0481166898,0.0202101222,-0.0229593473,1.0547591832,-0.0900129994,9.6347249701
1520531471353161223,0.0508856697,0.0181467468,-0.0137814824,1.0415309384,-0.0276566672,9.5848207301
1520531471358177223,0.0513938029,0.0192993701,-0.0089036973,1.0066564747,-0.0468401978,9.5572874312
1520531471363192223,0.0508945415,0.0189954053,-0.0043057067,0.9705794433,-0.0888073028,9.6262460031
1520531471368209223,0.0524063725,0.0183972015,0.0016390565,1.0078590424,-0.1199878573,9.6689128755
1520531471373224223,0.0516540912,0.0148791673,0.0094596106,1.0234924227,-0.1020019685,9.6792024652
1520531471378241223,0.0516624338,0.0148514869,0.0197403546,1.0487463446,-0.1247876034,9.6998974677
1520531471383256223,0.0539354571,0.0168636559,0.0303030057,1.0559617509,-0.0936105144,9.7346611532
1520531471388272223,0.0526903439,0.0200450836,0.0389872619,1.0848233760,-0.0888162005,9.7564562896
1520531471393288223,0.0542112741,0.0232217669,0.0498307513,1.0631771572,-0.0660308466,9.7647797708
1520531471398302223,0.0569916898,0.0284379058,0.0609580146,1.0944439177,-0.0132711031,9.8225311861
1520531471403320223,0.0562527770,0.0324856712,0.0726240115,1.1064695949,-0.0156703206,9.8073086028
1520531471408334223,0.0582742389,0.0347913116,0.0823777147,1.1136850011,-0.0048786187,9.8583621824
1520531471413349223,0.0590456321,0.0426364078,0.0908232606,1.1497620325,-0.0360590795,9.8952300401
1520531471418366223,0.0590552567,0.0458241553,0.0973408160,1.0968490531,-0.0456480819,9.9538616150
1520531471423382223,0.0568043758,0.0484216917,0.1062930389,1.1100772980,-0.1032078525,9.9712211470
1520531471428398223,0.0563048086,0.0487041381,0.1095427461,1.1076721626,-0.0924154013,9.9840176165
1520531471433413223,0.0563121005,0.0498507370,0.1165858318,1.0643797249,-0.1187931189,10.0251397624
1520531471438429223,0.0568150863,0.0472153614,0.1214347167,1.0258975581,-0.1283832452,10.0603879976
1520531471443445223,0.0568140709,0.0451698423,0.1235835223,1.0090616101,-0.1475681807,10.0756784492
1520531471448459223,0.0550607382,0.0477843296,0.1263122560,1.0042513393,-0.1883385804,10.0571707237
1520531471453476223,0.0528067014,0.0524412253,0.1279753013,0.9669717402,-0.1571580260,10.0238010030
1520531471458493223,0.0528131740,0.0591518106,0.1247798815,0.9789974173,-0.1403709967,9.9725332477
1520531471463507223,0.0535693639,0.0629495744,0.1212902848,0.9633640370,-0.1739457109,9.9680695791
1520531471468523223,0.0538317497,0.0711084397,0.1213520645,0.9573511984,-0.2075211745,10.0192951798
1520531471473539223,0.0530826126,0.0775317156,0.1165325464,0.9789974173,-0.1799426306,10.0225440259
1520531471478555223,0.0543399497,0.0807490926,0.1122259324,0.9092484899,-0.1907294622,9.9581533818
1520531471483571223,0.0538374971,0.0857242856,0.1041482814,0.8960202451,-0.2027198361,9.9513209671
1520531471488587223,0.0540883216,0.0889456393,0.0982202589,0.9020330837,-0.2099151470,9.9071079876
1520531471493602223,0.0545926874,0.0933304444,0.0931122997,0.9140587608,-0.1847341347,9.8628049106
1520531471498618223,0.0558469900,0.0948016995,0.0879807095,0.9320972765,-0.1787398375,9.8335698892
1520531471503634223,0.0555961813,0.0974342598,0.0842135414,0.9332998442,-0.2039218800,9.8730956347
1520531471508650223,0.0563474433,0.0974432963,0.0809655905,0.8695637554,-0.2171074607,9.9399710708
1520531471513664223,0.0535814469,0.0986186779,0.0769214284,0.8924125419,-0.2171092402,9.9618294099
1520531471518682223,0.0568492137,0.1000805226,0.0755737469,0.8767791617,-0.2326968482,9.8934302837
1520531471523697223,0.0573541480,0.1035853466,0.0726234856,0.8202584792,-0.2494804121,9.8835374965
1520531471528712223,0.0578581570,0.1059224472,0.0704759697,0.7769660415,-0.2206976701,9.8874172463
1520531471533729223,0.0608743232,0.1094340831,0.0653566740,0.7733583384,-0.1883205977,9.8525564707
1520531471538745223,0.0623844136,0.1146956209,0.0594418795,0.7637377967,-0.1499473549,9.9153684658
1520531471543760223,0.0636358582,0.1147128670,0.0532169903,0.7432941455,-0.0995818649,9.9410855065
1520531471548775223,0.0638826369,0.1156060583,0.0461889995,0.7805737446,-0.0636105557,9.9174446905
1520531471553792223,0.0651384802,0.1185356929,0.0405274330,0.7649403644,-0.0336308275,9.9326754942
1520531471558808223,0.0656383611,0.1205937923,0.0337784137,0.7300659007,-0.0096453029,9.9225322584
1520531471563822223,0.0656367459,0.1241115311,0.0259592598,0.7300659007,0.0167357864,9.9596951395
1520531471568839223,0.0658930276,0.1319979510,0.0189846230,0.7108248173,0.0023475999,9.9691936041
1520531471573856223,0.0658895620,0.1331802430,0.0127709598,0.7793711769,0.0107362443,9.9813018140
1520531471578870223,0.0626148560,0.1311560253,0.0065389100,0.7938019895,0.0095359799,10.0125404094
1520531471583886223,0.0598458684,0.1302924436,0.0022086403,0.7589275258,-0.0048509890,10.0094074563
1520531471588902223,0.0568308156,0.1326310796,-0.0010145250,0.7986122603,-0.0696076627,10.0950829863
1520531471593918223,0.0510466771,0.1303013810,-0.0023743046,0.8070302343,-0.0672100374,10.0926744244
1520531471598932223,0.0460132674,0.1256409016,-0.0037532689,0.7781686092,-0.0600129471,10.0964347615
1520531471603950223,0.0402316302,0.1227175076,-0.0010593062,0.8034225312,-0.0564174927,10.1194283264
1520531471608965223,0.0372115945,0.1171698220,0.0026916984,0.7950045572,-0.0648108200,10.0811676967
1520531471613980223,0.0311782625,0.1139549450,0.0053839048,0.7938019895,-0.0732047093,10.0184318136
1520531471618997223,0.0241414522,0.1124901666,0.0072796789,0.8046250989,-0.0768029735,10.0183299761
1520531471624012223,0.0203758824,0.1142318979,0.0091938395,0.8310815886,-0.0851990170,9.9936756272
1520531471629028223,0.0158598856,0.1162545203,0.0148992659,0.8683611877,-0.0792062183,9.9781990524
1520531471634044223,0.0110917980,0.1176942753,0.0206007129,0.8996279482,-0.0923991982,10.0034747506
1520531471639059223,0.0035659743,0.1223308927,0.0290372068,0.9248818702,-0.0995960076,10.0148574000
1520531471644075223,-0.0001927427,0.1252206798,0.0374533612,0.8912099742,-0.0983942447,9.9849682294
1520531471649091223,-0.0047061481,0.1275274024,0.0458664697,0.8912099742,-0.1163813510,9.9268785718
1520531471654107223,-0.0089702777,0.1286701423,0.0537291273,0.9176664639,-0.1403662200,9.8824829771
1520531471659124223,-0.0094563038,0.1353470228,0.0629797522,0.9152613285,-0.1823359475,9.8732501625
1520531471664137223,-0.0117074865,0.1399944490,0.0681598941,0.8863997034,-0.2099139294,9.8735579786
1520531471669154223,-0.0134599332,0.1455329795,0.0671232162,0.8310815886,-0.1967190764,9.8810564122
1520531471674170223,-0.0121906821,0.1542720939,0.0682697587,0.8635509168,-0.1775353584,9.8923431058
1520531471679185223,-0.0101699533,0.1615560379,0.0688626938,0.9116536254,-0.1427640325,9.9267053113
1520531471684201223,-0.0089072100,0.1668043654,0.0678181922,0.9525409276,-0.0708187916,10.0099115438
1520531471689216223,-0.0056357972,0.1688395095,0.0699920535,1.0018462038,0.0035240746,10.0628177593
1520531471694234223,-0.0056352797,0.1653254129,0.0764584780,1.0102641778,0.0370993509,10.1312695757
1520531471699248223,-0.0028736428,0.1594813230,0.0829019839,1.0138718810,0.0358999295,10.2125857067
1520531471704265223,0.0001420137,0.1530429076,0.0936693111,0.9717820110,0.0395006288,10.2234511712
1520531471709280223,0.0023992456,0.1445703326,0.1022581098,0.9080459222,0.0155227843,10.2531485248
1520531471714295223,0.0041596428,0.1401762157,0.1111495111,0.9369075473,-0.0444364847,10.2680339419
1520531471719312223,0.0026532416,0.1351951360,0.1211247171,0.9260844379,-0.0792107140,10.3344154036
1520531471724328223,0.0034098940,0.1313812090,0.1308340691,0.8286764532,-0.1511515530,10.3621629845
1520531471729343223,0.0003949941,0.1252310868,0.1418853667,0.7925994218,-0.1871229559,10.3637113603
1520531471734359223,-0.0016149732,0.1193749282,0.1521253828,0.7829788801,-0.1943170491,10.4416756617
1520531471739375223,-0.0011109838,0.1143946362,0.1620968551,0.7925994218,-0.2302920111,10.5101835947
1520531471744390223,-0.0016115821,0.1067776495,0.1771905585,0.8022199635,-0.1823271435,10.5239889082
1520531471749406223,-0.0023654591,0.0977036416,0.1922736132,0.9044382191,-0.1535557344,10.5496952252
1520531471754422223,0.0003923318,0.0822132682,0.2100066848,0.8611457814,-0.1451583797,10.6175127712
1520531471759438223,0.0069198718,0.0678942804,0.2261183726,0.8130430729,-0.1535486162,10.6412320379
1520531471764453223,0.0129404153,0.0506627072,0.2416676711,0.8058276666,-0.1271669650,10.6807894372
1520531471769470223,0.0182071095,0.0346014758,0.2553334410,0.7745609061,-0.1103765639,10.7461574594
1520531471774485223,0.0239742921,0.0179620428,0.2673705558,0.7372813070,-0.1259624859,10.7790755482
1520531471779502223,0.0330052428,0.0016269292,0.2750750919,0.7012042756,-0.1007777272,10.8340229097
1520531471784516223,0.0435461937,-0.0103244425,0.2782108938,0.6422784577,-0.0899808741,10.8717745399
1520531471789533223,0.0530874927,-0.0181968246,0.2813796858,0.5737320980,-0.1211531865,10.8585264035
1520531471794549223,0.0623809743,-0.0213976831,0.2810674172,0.5051857384,-0.1103555840,10.8708045072
1520531471799564223,0.0721815855,-0.0211010020,0.2805103463,0.4727164101,-0.1115521956,10.9629310854
1520531471804580223,0.0817268207,-0.0184493048,0.2710435122,0.3897392379,-0.1043508906,10.9486238469
1520531471809595223,0.0922849901,-0.0117251148,0.2643113934,0.3332185554,-0.0935542247,11.0316756812
1520531471814611223,0.1015817374,-0.0087901443,0.2578232540,0.3741058577,-0.0336003880,11.0846778643
1520531471819627223,0.1091150843,-0.0078904557,0.2494289988,0.3704981545,0.0167637908,11.0672317079
1520531471824643223,0.1196614651,-0.0090300057,0.2412841272,0.3933469411,0.0755198920,11.0495198549
1520531471829659223,0.1317151918,-0.0130944652,0.2374429587,0.4270188370,0.1198854652,11.1037696136
1520531471834674223,0.1422635876,-0.0159968910,0.2346956665,0.4823369518,0.1042923313,11.1334621252
1520531471839690223,0.1533060855,-0.0267737865,0.2345928765,0.4125880245,0.1270814316,11.1178487857
1520531471844706223,0.1663522936,-0.0398693156,0.2301398338,0.4137905922,0.1438693039,11.1352528692
1520531471849722223,0.1781375619,-0.0570483626,0.2270107309,0.4041700505,0.1714502829,11.1202117434
1520531471854736223,0.1904249926,-0.0727622773,0.2209158051,0.3801186962,0.1810452795,11.1099771942
1520531471859753223,0.2004510005,-0.0873071693,0.2132106968,0.3488519357,0.1282855360,11.0801172338
1520531471864767223,0.2087282156,-0.0928132744,0.2031428582,0.3139774720,0.1330848138,11.0176962296
1520531471869785223,0.2172597677,-0.0951096806,0.1914757314,0.2526465187,0.1186999054,10.9462542944
1520531471874801223,0.2237818153,-0.0944828311,0.1760469267,0.2670773312,0.1031099560,10.9019675648
1520531471879815223,0.2297974350,-0.0976485480,0.1622134307,0.3308134200,0.0839187452,10.9246087854
1520531471884832223,0.2348057894,-0.1031493771,0.1497167464,0.3813212639,0.0503388797,10.9380956419
1520531471889847223,0.2367951196,-0.1136158510,0.1412460588,0.4450573527,0.0515330561,10.9235283772
1520531471894862223,0.2385383416,-0.1205872660,0.1333436067,0.4546778944,0.0287486388,10.9408891135
1520531471899880223,0.2377668582,-0.1293101580,0.1262441210,0.4775266810,0.0335434209,10.9418241840
1520531471904895223,0.2334764423,-0.1389100388,0.1196855920,0.4655010038,0.0119598299,10.9930966167
1520531471909910223,0.2281843125,-0.1438386914,0.1096474026,0.4522727590,0.0107617198,11.1013059294
1520531471914925223,0.2206279841,-0.1511014916,0.1004072667,0.4125880245,0.0167605127,11.1005242056
1520531471919942223,0.2085502567,-0.1569091413,0.0911866472,0.4414496496,0.0335462307,11.1711176947
1520531471924958223,0.1932139988,-0.1583553158,0.0849814463,0.4642984361,0.0671203831,11.2568612097
1520531471929974223,0.1746067633,-0.1633015699,0.0795672735,0.4390445142,0.1222828094,11.2930796889
1520531471934990223,0.1544965726,-0.1653374831,0.0752603154,0.5051857384,0.1342690623,11.3075320888
1520531471940006223,0.1331303699,-0.1676681869,0.0720356514,0.5665166917,0.1810307622,11.3243216860
1520531471945020223,0.1105110956,-0.1708888336,0.0744881157,0.6434810254,0.1558428191,11.3526507174
1520531471950037223,0.0848849425,-0.1691636806,0.0794188861,0.6242399420,0.1930176707,11.3283967257
1520531471955053223,0.0577516120,-0.1671484623,0.0846252258,0.6374681868,0.1918175001,11.3631334580
1520531471960069223,0.0313734090,-0.1645516365,0.0903757033,0.6975965724,0.1690291490,11.3300303920
1520531471965083223,0.0024915796,-0.1584744779,0.1018389889,0.7589275258,0.1714226532,11.3131610800
1520531471970099223,-0.0248799908,-0.1497706257,0.1119667525,0.7817763124,0.1894079800,11.2943268406
1520531471975116223,-0.0502420449,-0.1395995936,0.1185848010,0.8202584792,0.2073920893,11.2369896850
1520531471980131223,-0.0808823427,-0.1303055110,0.1254765274,0.8118405052,0.2001979023,11.1545664156
1520531471985148223,-0.1075021651,-0.1204234420,0.1310125029,0.8779817294,0.2001927510,11.1388147661
1520531471990163223,-0.1331189052,-0.1125828562,0.1373426875,0.8900074065,0.2421617293,11.0619552877
1520531471995178223,-0.1552159641,-0.1029896710,0.1425974930,0.9320972765,0.2721369617,10.9964363158
1520531472000195223,-0.1780708321,-0.0951399894,0.1459465389,0.8924125419,0.3093134056,11.0002727650
1520531472005210223,-0.2029415400,-0.0890292046,0.1454983375,0.9128561931,0.2781341624,10.9524562798
1520531472010226223,-0.2215269232,-0.0829254280,0.1485555647,0.8936151097,0.2625468355,10.8678222534
1520531472015240223,-0.2358383288,-0.0733138937,0.1481144379,0.8900074065,0.2193780612,10.7970086836
1520531472020258223,-0.2521624969,-0.0639879757,0.1452399088,0.8719688908,0.1690155683,10.6705596807
1520531472025273223,-0.2639661009,-0.0564071358,0.1418025484,0.8707663231,0.1630199599,10.5938757315
1520531472030289223,-0.2735120613,-0.0511535723,0.1372610192,0.8671586200,0.1438339941,10.5183901990
1520531472035305223,-0.2792871789,-0.0461957439,0.1348746332,0.8683611877,0.1342407770,10.4567942191
1520531472040319223,-0.2825520329,-0.0421059855,0.1305830895,0.8274738854,0.0682912382,10.4363379135
1520531472045335223,-0.2838061003,-0.0377240550,0.1262900350,0.7613326612,0.0551058448,10.3556444776
1520531472050352223,-0.2840562465,-0.0336302015,0.1209107070,0.7168376559,0.0802912591,10.3560530085
1520531472055368223,-0.2843038405,-0.0274959278,0.1152763947,0.7348761716,0.0922812585,10.3198392767
1520531472060383223,-0.2835460667,-0.0225326259,0.1117956904,0.7384838747,0.1402465944,10.3395138352
1520531472065398223,-0.2812756700,-0.0175847587,0.1142641954,0.7384838747,0.1906104922,10.3510861625
1520531472070415223,-0.2759935607,-0.0161352381,0.1177826062,0.6723426505,0.2541700859,10.3516679656
1520531472075431223,-0.2729821226,-0.0237304504,0.1252944904,0.6567092702,0.3021369205,10.3552597896
1520531472080447223,-0.2687159506,-0.0327828215,0.1330634715,0.6254425097,0.2985419343,10.3148925907
1520531472085462223,-0.2596807737,-0.0450341812,0.1391758555,0.5797449366,0.2829566679,10.3153525843
1520531472090478223,-0.2531623291,-0.0616645776,0.1479650194,0.5160088478,0.3117410021,10.3182691760
1520531472095493223,-0.2451389887,-0.0779920723,0.1526954176,0.5051857384,0.3129409854,10.3206976401
1520531472100509223,-0.2378666868,-0.0928658535,0.1585205149,0.3861315348,0.2925648706,10.3056063041
1520531472105525223,-0.2250680962,-0.1086079800,0.1629759457,0.2586593572,0.2398126199,10.2580884449
1520531472110541223,-0.2142826562,-0.1220001504,0.1601481557,0.1540359662,0.2374224875,10.2335419565
1520531472115556223,-0.1989770011,-0.1362581462,0.1548703824,0.0121329761,0.2278404159,10.2279596442
1520531472120572223,-0.1861827857,-0.1461317901,0.1442197046,-0.0997058212,0.1702903860,10.2267800548
1520531472125589223,-0.1678520767,-0.1501755774,0.1336032207,-0.1898983997,0.1547085850,10.2369702871
1520531472130604223,-0.1507834054,-0.1582992404,0.1229579472,-0.2885089522,0.1187420524,10.2763159324
1520531472135619223,-0.1302023958,-0.1684510187,0.1085029354,-0.4207914006,0.0947695465,10.2904104588
1520531472140635223,-0.1076145161,-0.1815173114,0.0945630508,-0.5097814114,0.0839842136,10.3482322108
1520531472145650223,-0.0845200831,-0.1931330405,0.0830682612,-0.5590866876,0.1427459344,10.3707355557
1520531472150667223,-0.0599234907,-0.2097053580,0.0728856083,-0.6384561566,0.1679340648,10.4598064738
1520531472155683223,-0.0373374694,-0.2280340545,0.0653988097,-0.6396587244,0.2170989158,10.5678496237
1520531472160698223,-0.0157617045,-0.2507368266,0.0589627152,-0.7082050840,0.2494810459,10.6591324681
1520531472165713223,0.0053108432,-0.2751939301,0.0546785828,-0.7587129279,0.2518832605,10.7537554021
1520531472170729223,0.0253819317,-0.2982003323,0.0525718000,-0.8056130687,0.2674757387,10.8123038956
1520531472175745223,0.0406757472,-0.3229561839,0.0501900004,-0.8368798293,0.3813965141,10.7962271245
1520531472180762223,0.0522173143,-0.3395751416,0.0554527332,-0.8861851055,0.4329633923,10.7989810381
1520531472185777223,0.0647665427,-0.3535676026,0.0593808774,-0.9799853871,0.4749406126,10.7766102266
1520531472190793223,0.0768220571,-0.3623211665,0.0655143377,-1.0365060696,0.4413690828,10.6737622938
1520531472195808223,0.0818459088,-0.3687515099,0.0735724723,-1.1074575647,0.4197900811,10.6872575237
1520531472200825223,0.0888793984,-0.3775201547,0.0845850932,-1.0725831010,0.4341770501,10.6915526209
1520531472205840223,0.0944163074,-0.3804726261,0.0997031646,-1.0389112051,0.4689494999,10.6946774003
1520531472210857223,0.0969279901,-0.3924679404,0.1180044718,-0.9896059288,0.4653482385,10.6488773868
1520531472215871223,0.0984331092,-0.4070933937,0.1389930971,-1.0040367414,0.4713450646,10.6513362887
1520531472220889223,0.1021943704,-0.4272608227,0.1623701963,-1.0605574239,0.5061245389,10.6774196825
1520531472225903223,0.1031911289,-0.4459651279,0.1830580859,-1.0773933719,0.4593593736,10.6601969982
1520531472230919223,0.1009297099,-0.4597237318,0.2062247484,-1.1146729710,0.4713536813,10.6593860176
1520531472235935223,0.1006815904,-0.4693934236,0.2261722496,-1.1435345961,0.4737542100,10.6108545542
1520531472240951223,0.0989298571,-0.4761505892,0.2464153279,-1.2589810965,0.4138061802,10.5574159407
1520531472245966223,0.0991917763,-0.4782346167,0.2629025993,-1.3587942167,0.3562552136,10.4712827921
1520531472250983223,0.0994562163,-0.4735949472,0.2713246247,-1.4117071961,0.3286791049,10.3683938975
1520531472255998223,0.0964592797,-0.4616573758,0.2743973767,-1.4357585503,0.3118930122,10.3384286266
1520531472261014223,0.0952203843,-0.4485448359,0.2742292033,-1.4634176077,0.3418736769,10.3421550412
1520531472266028223,0.0949813211,-0.4377556941,0.2713359193,-1.4862663943,0.3658582650,10.2947061484
1520531472271046223,0.0927307657,-0.4284271763,0.2695174373,-1.4826586911,0.3802476691,10.2446848111
1520531472276061223,0.0879673081,-0.4196853259,0.2687813599,-1.4778484203,0.3838447157,10.2167430280
1520531472281077223,0.0814513569,-0.4065755820,0.2688935335,-1.4549996337,0.3730506723,10.2537197625
1520531472286093223,0.0769452670,-0.3943413893,0.2698069418,-1.4056943575,0.3274794962,10.2776893131
1520531472291108223,0.0676644954,-0.3835725459,0.2731530155,-1.4225303055,0.3166885436,10.2313779498
1520531472296123223,0.0581419281,-0.3658105722,0.2765529099,-1.3936686804,0.3418682447,10.1799381383
1520531472301140223,0.0496196242,-0.3533004105,0.2826163809,-1.3840481387,0.3430666358,10.1810054725
1520531472306156223,0.0363217251,-0.3390328858,0.2846438697,-1.3912635450,0.3142878276,10.1334558648
1520531472311171223,0.0240271239,-0.3282710512,0.2901599112,-1.3443634041,0.2843056643,10.1330286011
1520531472316186223,0.0114862813,-0.3145991120,0.2970513798,-1.3058812373,0.2555232970,10.0676020420
1520531472321204223,0.0034731770,-0.2962566923,0.3015351036,-1.3347428624,0.2423350002,10.0365179394
1520531472326219223,-0.0100693757,-0.2764500463,0.3025231142,-1.3227171853,0.2147538339,10.0282927759
1520531472331235223,-0.0213461500,-0.2546071931,0.3051457612,-1.2686016382,0.2195461808,9.9928970524
1520531472336250223,-0.0311204945,-0.2350875411,0.3050423642,-1.2854375862,0.2207466325,9.9640061550
1520531472341266223,-0.0414014354,-0.2167256114,0.3019550035,-1.2686016382,0.2471264106,9.9475465434
1520531472346281223,-0.0524374646,-0.2007016092,0.3012861713,-1.1591679764,0.2806938194,9.9115843231
1520531472351297223,-0.0589525337,-0.1861313005,0.3000567309,-1.1471422992,0.2794937424,9.9149548737
1520531472356314223,-0.0674785228,-0.1724381183,0.2996359927,-1.1784090598,0.2890893009,9.9617356087
1520531472361329223,-0.0757536913,-0.1569870610,0.2957110297,-1.1519525701,0.2878881000,9.9719385624
1520531472366344223,-0.0830231352,-0.1406592709,0.2909792313,-1.1435345961,0.3010779890,9.9706816203
1520531472371361223,-0.0910447585,-0.1225812837,0.2854505339,-1.0797985073,0.3370472377,9.9874583314
1520531472376376223,-0.0985637841,-0.1045030996,0.2799209031,-1.0569497208,0.3010712455,9.9640281364
1520531472381392223,-0.1073441377,-0.0878728609,0.2708653938,-1.0749882364,0.3154623355,9.9246767858
1520531472386408223,-0.1156266883,-0.0744461981,0.2612434053,-1.0413163405,0.3310485385,9.8836588044
1520531472391423223,-0.1244101665,-0.0604398770,0.2527089801,-1.0401137728,0.3358450065,9.9196688846
1520531472396438223,-0.1367141649,-0.0499395613,0.2471304168,-0.9378955172,0.3082568157,9.9419437286
1520531472401455223,-0.1475086571,-0.0391516409,0.2431745516,-0.9042236212,0.3118516145,9.9462610549
1520531472406471223,-0.1585587606,-0.0318618901,0.2397335679,-0.8525132095,0.2914621999,9.9980740941
1520531472411487223,-0.1713687047,-0.0254484390,0.2368302738,-0.7827642822,0.2506859932,10.0532178682
1520531472416501223,-0.1829221546,-0.0190344956,0.2339246461,-0.7599154957,0.2590781967,10.0297444077
1520531472421518223,-0.1949794411,-0.0161290184,0.2353220091,-0.6805460266,0.2446823300,9.9952837313
1520531472426534223,-0.2077950619,-0.0143799050,0.2331947834,-0.6601023755,0.2674644058,10.0217918389
1520531472431550223,-0.2198557669,-0.0091214986,0.2264935542,-0.6865588652,0.2866527131,10.0127334891
1520531472436565223,-0.2324147611,-0.0018286964,0.2217026414,-0.7731437405,0.3118414055,9.9414987718
1520531472441581223,-0.2459826475,0.0022562968,0.2177007792,-0.7514975217,0.3106405792,9.9749914248
1520531472446596223,-0.2572848339,0.0118901371,0.2094082208,-0.8537157773,0.3562158764,9.9131861462
1520531472451613223,-0.2698487952,0.0171505319,0.2018962874,-0.8573234804,0.3861946680,9.8655441258
1520531472456629223,-0.2814074750,0.0218256377,0.1954602246,-0.6793434589,0.4065661935,9.8440354514
1520531472461644223,-0.2899447626,0.0302877385,0.1898590988,-0.7911822562,0.4329559932,9.8230175611
1520531472466659223,-0.2984908908,0.0332179040,0.1825924591,-0.9126415952,0.4437577167,9.7765413456
1520531472471676223,-0.3057854019,0.0349939500,0.1712564049,-0.9306801109,0.4341659982,9.7499969652
1520531472476691223,-0.3160914961,0.0393898185,0.1604870510,-0.9138441629,0.4017878955,9.6789738854
1520531472481707223,-0.3258878223,0.0487379640,0.1502956479,-0.9487186266,0.3933966287,9.6781593735
1520531472486723223,-0.3316643747,0.0589691227,0.1373979875,-0.9739725486,0.3886020339,9.6249512351
1520531472491739223,-0.3399543035,0.0718348693,0.1196551760,-0.9475160589,0.3478291989,9.6828406791
1520531472496754223,-0.3517608830,0.0832306600,0.1062365175,-0.9727699808,0.3130560935,9.6261753424
1520531472501770223,-0.3613059064,0.0940423824,0.0936208501,-0.9992264705,0.2746856605,9.6427402878
1520531472506786223,-0.3683389099,0.1039802074,0.0812643920,-0.9799853871,0.2746841619,9.6948494849
1520531472511800223,-0.3783916784,0.1110037341,0.0686207579,-0.9679597100,0.2758823658,9.6680019540
1520531472516816223,-0.3856753652,0.1212321168,0.0565375355,-1.0196701216,0.2363147592,9.7185160497
1520531472521833223,-0.3927113599,0.1291309785,0.0438949700,-1.0220752571,0.1619682402,9.6605047611
1520531472526850223,-0.4015064895,0.1373219925,0.0307168028,-1.0401137728,0.1379868367,9.5363543206
1520531472531865223,-0.4077956249,0.1408540238,0.0166867613,-1.0569497208,0.1331915862,9.4470377843
1520531472536880223,-0.4115669381,0.1458344928,0.0061802647,-1.1026472938,0.1056149155,9.3835915538
1520531472541896223,-0.4123238062,0.1511126267,-0.0062234308,-1.1254960804,0.1116123972,9.3303494813
1520531472546911223,-0.4140901350,0.1540629328,-0.0199957736,-1.1351166221,0.1200071294,9.2839491782
1520531472551928223,-0.4145951359,0.1584611842,-0.0302422379,-1.1760039243,0.0684472757,9.2599924086
1520531472556943223,-0.4108314399,0.1619942400,-0.0432087648,-1.1687885181,-0.0130948351,9.2774338527
1520531472561960223,-0.4090886922,0.1582440803,-0.0570387726,-1.1507500024,-0.0274859251,9.2714615891
1520531472566974223,-0.4058358621,0.1568285013,-0.0719359797,-1.2397400131,-0.0526609431,9.2188936975
1520531472571991223,-0.4033444007,0.1525104366,-0.0911827518,-1.3046786696,-0.0958249407,9.1847035482
1520531472577006223,-0.3995978095,0.1470265976,-0.1101702040,-1.3299325916,-0.1066152377,9.1047719456
1520531472582023223,-0.3940860106,0.1462063286,-0.1293958998,-1.3335402947,-0.1437883098,9.1048433102
1520531472587038223,-0.3918403477,0.1462603902,-0.1491499507,-1.3359454302,-0.1881563182,9.0712078112
1520531472592054223,-0.3873360728,0.1448620574,-0.1702720470,-1.3407557010,-0.2517103860,9.0585330230
1520531472597069223,-0.3853393801,0.1454936905,-0.1881273638,-1.3215146176,-0.2948809398,9.0421178229
1520531472602086223,-0.3795695118,0.1478707371,-0.2043530675,-1.2782221799,-0.3380533668,9.0649814162
1520531472607101223,-0.3755652903,0.1455856704,-0.2208816194,-1.2746144768,-0.3740278604,9.0138470472
1520531472612116223,-0.3682930942,0.1403712845,-0.2312159140,-1.2445502840,-0.3788267636,8.9566140444
1520531472617132223,-0.3617806908,0.1304929940,-0.2410432859,-1.2601836642,-0.3776264056,8.9137657145
1520531472622149223,-0.3552682012,0.1200290206,-0.2497929205,-1.2625887997,-0.3740287970,8.8254626760
1520531472627164223,-0.3477538173,0.1066494106,-0.2577550151,-1.3010709665,-0.3620343957,8.8142041049
1520531472632181223,-0.3387339652,0.0941561997,-0.2700419751,-1.2842350185,-0.3356546176,8.8070416449
1520531472637196223,-0.3302133236,0.0839931397,-0.2820396711,-1.2686016382,-0.3296601331,8.7150742601
1520531472642212223,-0.3211821689,0.0781944886,-0.2915700412,-1.2950581279,-0.3356537747,8.7304454895
1520531472647227223,-0.3108973350,0.0706494795,-0.3016571752,-1.2469554194,-0.3248652573,8.6799945731
1520531472652243223,-0.3008626982,0.0645642084,-0.3128149107,-1.2229040651,-0.3560447815,8.6181972452
1520531472657259223,-0.2933410067,0.0581851112,-0.3234291102,-1.2060681172,-0.3644400757,8.5517993544
1520531472662275223,-0.2828045681,0.0500537894,-0.3321684276,-1.2120809557,-0.3644396074,8.5146692732
1520531472667290223,-0.2720121263,0.0442485432,-0.3389966058,-1.1748013566,-0.3848278980,8.4690026810
1520531472672306223,-0.2617165582,0.0442780750,-0.3484848478,-1.1663833826,-0.4136079238,8.3992201725
1520531472677322223,-0.2514186184,0.0445924354,-0.3555359537,-1.1844218983,-0.4303944848,8.3715206642
1520531472682337223,-0.2413688136,0.0457742950,-0.3601450105,-1.1206858095,-0.4459882743,8.3314026032
1520531472687354223,-0.2288082159,0.0469644236,-0.3674641935,-0.9980239028,-0.4268115809,8.2418670374
1520531472692370223,-0.2170031495,0.0443546030,-0.3704821421,-0.9270724078,-0.4232196855,8.2086329004
1520531472697384223,-0.2077065905,0.0426070249,-0.3694305658,-0.8489055064,-0.4040395267,8.1172061339
1520531472702401223,-0.1984109174,0.0379354036,-0.3646135778,-0.7659283342,-0.3848597424,8.0129489636
1520531472707416223,-0.1861043237,0.0291826666,-0.3587511301,-0.6637100786,-0.4256384779,7.9259951387
1520531472712432223,-0.1735507907,0.0157613198,-0.3504898054,-0.6011765575,-0.4688124035,7.8522135029
1520531472717447223,-0.1614973934,0.0035024004,-0.3411364714,-0.5675046616,-0.5683436811,7.7822541792
1520531472722465223,-0.1507010155,-0.0081698716,-0.3333996329,-0.5783277710,-0.6510835274,7.7661701938
1520531472727479223,-0.1406665748,-0.0218646483,-0.3321700574,-0.5314276302,-0.6954553758,7.7192712040
1520531472732495223,-0.1278611275,-0.0349952406,-0.3236364304,-0.4977557342,-0.7254365088,7.6318118993
1520531472737511223,-0.1138059957,-0.0495662378,-0.3210682622,-0.4147785620,-0.7566206224,7.5066852501
1520531472742526223,-0.1025046365,-0.0565630487,-0.3181666140,-0.4159811297,-0.7638153713,7.4451103416
1520531472747541223,-0.0914503500,-0.0594762040,-0.3168566512,-0.3919297755,-0.7901983338,7.4263076627
1520531472752558223,-0.0776335757,-0.0620896076,-0.3182550582,-0.3594604472,-0.8117853902,7.3005011272
1520531472757573223,-0.0640684532,-0.0652873355,-0.3191163529,-0.2452165145,-0.7734217944,7.2912167203
1520531472762590223,-0.0512548513,-0.0667370516,-0.3199629089,-0.1550239360,-0.7806236614,7.3682095021
1520531472767606223,-0.0412021964,-0.0670281401,-0.3186310714,-0.1117314984,-0.8142029650,7.3899015967
1520531472772621223,-0.0329034466,-0.0652882388,-0.3143044004,-0.0516031127,-0.7830299970,7.3765023575
1520531472777638223,-0.0225949256,-0.0653016844,-0.3078304346,0.0927050128,-0.8262102914,7.3890855744
1520531472782653223,-0.0120285548,-0.0621170861,-0.2986270226,0.2069489456,-0.9017650358,7.3508586559
1520531472787669223,-0.0052344421,-0.0624371349,-0.2870083737,0.2165694873,-0.9845064743,7.3357378285
1520531472792683223,0.0015563697,-0.0656732142,-0.2746003179,0.2382157061,-1.0984265004,7.2903146105
1520531472797699223,0.0096017389,-0.0706585653,-0.2616668425,0.2225823258,-1.1715728487,7.2312687642
1520531472802715223,0.0178964349,-0.0741737835,-0.2535925445,0.2310002998,-1.2051494361,7.1847338122
1520531472807732223,0.0264456407,-0.0756506685,-0.2449620599,0.1913155653,-1.1967523624,7.1142211124
1520531472812747223,0.0342428043,-0.0733289235,-0.2403594634,0.1792898882,-1.1403918259,7.0782567415
1520531472817763223,0.0443015750,-0.0689571311,-0.2392626024,0.1311871796,-1.1020155860,7.0136074634
1520531472822780223,0.0566263987,-0.0584522657,-0.2429930834,0.1047306900,-1.0600436106,6.9719868655
1520531472827795223,0.0669359156,-0.0473464798,-0.2537495776,0.1215666379,-1.0072827432,6.9973387107
1520531472832810223,0.0782540660,-0.0312758366,-0.2685283347,0.1696693465,-1.0168796130,7.0480141972
1520531472837826223,0.0913252394,-0.0186967479,-0.2849603113,0.1732770496,-1.0072867706,7.0967797734
1520531472842842223,0.1038957518,-0.0043680921,-0.3019191077,0.1937207007,-0.9341407970,7.1116173291
1520531472847857223,0.1167162459,0.0099650327,-0.3205016463,0.2610644926,-0.8550027740,7.1073982377
1520531472852874223,0.1265224673,0.0228291269,-0.3350315111,0.3103697689,-0.7662702227,7.1405339740
1520531472857889223,0.1380871610,0.0339397757,-0.3474136143,0.3680930191,-0.7794652631,7.1411471379
1520531472862904223,0.1501443299,0.0363032582,-0.3576989764,0.4234111339,-0.8034523799,7.1359835163
1520531472867921223,0.1614428860,0.0319500326,-0.3626231514,0.3993597796,-0.8142427705,7.1524981569
1520531472872936223,0.1689712109,0.0267197196,-0.3670059029,0.4378419465,-0.7950595208,7.1114298472
1520531472877952223,0.1782589295,0.0194402062,-0.3676198406,0.4306265402,-0.7255088143,7.1277022712
1520531472882968223,0.1847803772,0.0092392085,-0.3658159622,0.3897392379,-0.6559554853,7.1303567094
1520531472887983223,0.1887894520,-0.0006721175,-0.3637346475,0.2730901698,-0.6211713280,7.2081596900
1520531472893000223,0.1938034635,-0.0088260015,-0.3648884119,0.1732770496,-0.6007781671,7.3009207033
1520531472898014223,0.1968077469,-0.0155193798,-0.3676506025,0.0890973097,-0.6343475427,7.3842850195
1520531472903031223,0.1952913800,-0.0198819973,-0.3709276992,-0.0239440553,-0.6007628068,7.4829726455
1520531472908047223,0.1955387271,-0.0198687871,-0.3757979920,-0.0431851387,-0.5563931126,7.5935203365
1520531472913062223,0.1950342908,-0.0178139953,-0.3814629608,-0.0840724410,-0.5084243112,7.6426815809
1520531472918078223,0.1922611279,-0.0201272153,-0.3885098048,-0.1021109567,-0.4760461149,7.6962842065
1520531472923094223,0.1887361816,-0.0203988537,-0.3963513248,-0.0455902742,-0.4388771638,7.7793721840
1520531472928108223,0.1867115011,-0.0276696859,-0.4018140860,-0.0191337845,-0.4244895392,7.8232621110
1520531472933126223,0.1811710480,-0.0364133877,-0.4018705107,0.0590331169,-0.3957162570,7.8561753928
1520531472938140223,0.1763811002,-0.0489506205,-0.3997928684,0.0963127160,-0.3897234583,7.8988060157
1520531472943157223,0.1723468444,-0.0632497053,-0.3925895929,0.0975152837,-0.3537493393,7.9231642535
1520531472948171223,0.1680630031,-0.0772618745,-0.3837603521,0.0710587940,-0.3297644703,7.9791812877
1520531472953189223,0.1645371863,-0.0909947473,-0.3703310082,0.1107435285,-0.3357632632,8.0369080653
1520531472958204223,0.1602630166,-0.1006485320,-0.3568691409,0.1708719142,-0.3597507546,8.1072369805
1520531472963219223,0.1580023581,-0.1091410899,-0.3415082938,0.1949232684,-0.3393672406,8.1569551906
1520531472968235223,0.1570021887,-0.1179391088,-0.3207410855,0.2538490864,-0.3105924598,8.2783786939
1520531472973251223,0.1577594370,-0.1287797722,-0.2986399763,0.3055594980,-0.3297827340,8.3336769957
1520531472978266223,0.1582690756,-0.1393400761,-0.2724779890,0.3404339617,-0.2878155353,8.3693230848
1520531472983283223,0.1575176449,-0.1531053737,-0.2466086678,0.3163826074,-0.2374497643,8.4183181197
1520531472988298223,0.1595385069,-0.1616275804,-0.2196222815,0.2754953052,-0.2278534565,8.4384631841
1520531472993314223,0.1628179721,-0.1695708964,-0.1910105072,0.2394182738,-0.2674222807,8.4679065229
1520531472998329223,0.1691057784,-0.1774889927,-0.1713323482,0.1937207007,-0.2722152833,8.4451131133
1520531473003347223,0.1754071376,-0.1746222194,-0.1529246645,0.1311871796,-0.2518250258,8.4410533216
1520531473008363223,0.1834698429,-0.1662009685,-0.1409711107,0.1107435285,-0.2674122590,8.5075097144
1520531473013376223,0.1927913319,-0.1554452354,-0.1300842895,0.0963127160,-0.2674111351,8.5704059486
1520531473018393223,0.2003572966,-0.1406042522,-0.1215979911,0.1275794765,-0.2590195873,8.6096063262
1520531473023410223,0.2089302169,-0.1243052241,-0.1133729900,0.1636565079,-0.2218490440,8.6975418655
1520531473028425223,0.2165000550,-0.1059647128,-0.1059421982,0.1636565079,-0.2134550610,8.7800459009
1520531473033441223,0.2228148025,-0.0882147472,-0.0958080599,0.1744796173,-0.2278455890,8.8183053380
1520531473038457223,0.2303857383,-0.0698778781,-0.0870245385,0.2177720550,-0.2182558374,8.8666846473
1520531473043473223,0.2359520896,-0.0477559831,-0.0773967456,0.2382157061,-0.1642961106,8.9059459355
1520531473048486223,0.2422729921,-0.0270994566,-0.0645349175,0.2646721958,-0.1654973115,8.9696075111
1520531473053504223,0.2475810898,-0.0113939471,-0.0527911986,0.2394182738,-0.1906772936,8.9989314722
1520531473058519223,0.2518827611,0.0037298564,-0.0415911507,0.2165694873,-0.2230523054,9.0549683503
1520531473063534223,0.2579388197,0.0165283719,-0.0323059759,0.2201771904,-0.2314465694,9.0979407468
1520531473068551223,0.2617279630,0.0290506422,-0.0289708333,0.1804924559,-0.2506297254,9.1657500724
1520531473073567223,0.2662719241,0.0412774528,-0.0240160386,0.1239717734,-0.2818029744,9.2395456820
1520531473078583223,0.2718147961,0.0514766204,-0.0234074067,0.1203640702,-0.2734087104,9.2360861799
1520531473083598223,0.2768547725,0.0651889594,-0.0289937200,0.1672642110,-0.2997934525,9.2496011357
1520531473088614223,0.2803890730,0.0824060631,-0.0377971067,0.2346080030,-0.2410408167,9.1861325813
1520531473093631223,0.2831715430,0.1004941113,-0.0455102403,0.3356236908,-0.1798925225,9.1885761522
1520531473098644223,0.2892142998,0.1142148568,-0.0540744253,0.4149931599,-0.0743743468,9.1412149584
1520531473103662223,0.2932492534,0.1267554364,-0.0575033969,0.5893654783,0.0215433063,9.0615605332
1520531473108677223,0.2957744734,0.1360821827,-0.0579780172,0.6987991402,0.0766952428,9.0058208176
1520531473113692223,0.3008089416,0.1424953398,-0.0582089897,0.7685480675,0.1414433933,8.9388365746
1520531473118708223,0.3083545868,0.1448177148,-0.0538764723,0.7781686092,0.2217850524,8.8979895500
1520531473123724223,0.3123827071,0.1471365261,-0.0487257832,0.7721557707,0.2541623122,8.9108000866
1520531473128740223,0.3159109112,0.1506170365,-0.0422125388,0.6627221088,0.2829502054,8.9281071980
1520531473133755223,0.3191949870,0.1590495285,-0.0351199434,0.5460730406,0.3165352223,8.9815063249
1520531473138771223,0.3229774029,0.1680817404,-0.0342463910,0.4558804621,0.2961568596,9.0846727509
1520531473143788223,0.3254989730,0.1753717087,-0.0358187564,0.3668904514,0.2709818415,9.1796971415
1520531473148802223,0.3302823658,0.1832475175,-0.0382025139,0.3704981545,0.2745789818,9.2796028983
1520531473153818223,0.3335581852,0.1911220071,-0.0403129252,0.4318291079,0.2409982733,9.2964708413
1520531473158834223,0.3380930902,0.1992810892,-0.0397179880,0.4859446550,0.2230069522,9.3482581318
1520531473163849223,0.3388592575,0.2068508264,-0.0372266749,0.5364524989,0.2445875461,9.3582047669
1520531473168867223,0.3413846030,0.2138355700,-0.0336608915,0.5713269626,0.2637710768,9.3067122768
1520531473173882223,0.3438994299,0.2117815658,-0.0279996565,0.6927863016,0.3009349702,9.2462244749
1520531473178897223,0.3454136758,0.2111753492,-0.0190788884,0.7613326612,0.3117218954,9.2130067320
1520531473183914223,0.3506879482,0.2047480180,-0.0121034042,0.7781686092,0.3309068310,9.1000961882
1520531473188929223,0.3516913204,0.1962662096,-0.0002657212,0.7853840155,0.3956598519,9.0523149114
1520531473193944223,0.3542013017,0.1883743168,0.0091386947,0.8046250989,0.4268360043,8.9881793102
1520531473198960223,0.3572127438,0.1822425830,0.0142267812,0.8010173958,0.4088491789,8.9161790403
1520531473203976223,0.3559527565,0.1731800331,0.0249820350,0.7757634738,0.3488941246,8.9699419353
1520531473208992223,0.3559434220,0.1635519604,0.0295079534,0.7348761716,0.2949359900,8.9738789594
1520531473214006223,0.3551815553,0.1550898588,0.0337736185,0.7240530621,0.3021316755,8.9565451295
1520531473219023223,0.3539227206,0.1501212610,0.0391490776,0.7216479267,0.2853438969,9.0251514037
1520531473224039223,0.3524155392,0.1489478478,0.0418484445,0.7541172550,0.2829430872,9.0794584717
1520531473229055223,0.3456354811,0.1506847555,0.0451209353,0.6627221088,0.2457768523,9.0583035704
1520531473234071223,0.3396042151,0.1483411183,0.0489019945,0.6434810254,0.2253929636,9.0922129047
1520531473239087223,0.3340710187,0.1439638138,0.0505021915,0.6170245357,0.2229967433,9.1622013919
1520531473244102223,0.3257715553,0.1381285037,0.0520964071,0.5941757491,0.2026131356,9.0694721504
1520531473249118223,0.3184841519,0.1378320786,0.0529193566,0.5701243949,0.2313943790,9.0220302853
1520531473254133223,0.3111960507,0.1392941588,0.0499680022,0.5689218272,0.2949489151,8.9429542264
1520531473259150223,0.3024014307,0.1410441190,0.0481038547,0.5027806029,0.2961532068,8.9052460847
1520531473264165223,0.2931046991,0.1439630626,0.0448968036,0.4342342433,0.2997559667,8.8908018935
1520531473269181223,0.2843092990,0.1495206893,0.0357568171,0.3344211231,0.3561233404,8.8219898170
1520531473274197223,0.2775171700,0.1527611393,0.0217254860,0.3055594980,0.3885023797,8.8268877420
1520531473279213223,0.2677124032,0.1583322124,0.0074469943,0.2646721958,0.3992978279,8.8911931074
1520531473284228223,0.2566537886,0.1682844876,-0.0108540059,0.2213797581,0.4076951826,8.9276327666
1520531473289243223,0.2498662465,0.1791198744,-0.0318617301,0.1973284039,0.3753202644,9.0069242288
1520531473294260223,0.2455911243,0.1908362268,-0.0550318194,0.1720744819,0.4196904269,9.0931254220
1520531473299275223,0.2367931955,0.2031343045,-0.0784596075,0.2273925967,0.4340758036,9.1739230341
1520531473304291223,0.2287564630,0.2195062335,-0.0996933053,0.2730901698,0.4352713850,9.2432057099
1520531473309307223,0.2222307304,0.2364535096,-0.1179493525,0.2730901698,0.4268774020,9.3106182446
1520531473314322223,0.2182189505,0.2528131737,-0.1340501459,0.3308134200,0.4676436807,9.3297730916
1520531473319339223,0.2136944504,0.2604252776,-0.1480523312,0.4198034308,0.5084075243,9.3509478950
1520531473324353223,0.2091729808,0.2683200249,-0.1588057428,0.4667035716,0.5155987141,9.2923771841
1520531473329370223,0.2043914149,0.2703898969,-0.1706853328,0.5087934415,0.5743533167,9.2372894436
1520531473334386223,0.2036236755,0.2660450571,-0.1804569312,0.5436679052,0.6498964473,9.1578505397
1520531473339402223,0.2046172233,0.2616936222,-0.1875263377,0.5833526397,0.7182443606,9.1422897491
1520531473344417223,0.2068669085,0.2552949752,-0.1916376345,0.5953783168,0.7350313900,9.1653992069
1520531473349433223,0.2078599270,0.2500672015,-0.1979020725,0.5761372334,0.7254397651,9.2062708809
1520531473354449223,0.2123701608,0.2439659241,-0.2039091680,0.6134168325,0.7410256872,9.2395949974
1520531473359465223,0.2168806063,0.2349369612,-0.2047981224,0.5881629106,0.7674087434,9.2921115561
1520531473364480223,0.2216392691,0.2229913378,-0.2046275907,0.5015780352,0.7530258018,9.3778048609
1520531473369496223,0.2274050640,0.2127958723,-0.2049866793,0.3993597796,0.7134621289,9.5008634941
1520531473374511223,0.2356798915,0.2011510245,-0.2077964635,0.2694824666,0.6607100656,9.5277462581
1520531473379528223,0.2442069508,0.1936009557,-0.2162570551,0.1516308308,0.6655158059,9.5614287070
1520531473384543223,0.2542484444,0.1901272188,-0.2233365943,0.0494125752,0.7098919627,9.6100282733
1520531473389560223,0.2647984789,0.1924879252,-0.2328075184,-0.0022978365,0.7962341006,9.7103917784
1520531473394576223,0.2763559081,0.1963052197,-0.2419986480,-0.0431851387,0.8717831317,9.7420939687
1520531473399590223,0.2846499731,0.2030365364,-0.2517025712,-0.0684390607,0.9581232090,9.7922277725
1520531473404606223,0.2942013163,0.2074241573,-0.2565567865,-0.1141366338,1.0156855084,9.8228321792
1520531473409622223,0.3004837086,0.2109392585,-0.2624937873,-0.0407800033,1.0468574462,9.9080864205
1520531473414637223,0.3055107516,0.2156208624,-0.2689606539,0.0205509501,1.0684371971,10.0074127946
1520531473419653223,0.3112909814,0.2176708313,-0.2719318318,0.0482100075,1.0192702856,10.0920280299
1520531473424669223,0.3175615772,0.2103952354,-0.2744339900,0.0253612209,0.9749038695,10.2096702309
1520531473429686223,0.3230803857,0.2036977426,-0.2753070266,0.0265637886,0.9209424568,10.2980340866
1520531473434701223,0.3275862992,0.1911714370,-0.2759521121,0.1203640702,0.8825626577,10.4377779295
1520531473439717223,0.3300739851,0.1707674919,-0.2731363904,0.1588462370,0.8477845883,10.5536516740
1520531473444733223,0.3317994985,0.1424878565,-0.2674032871,0.1504282631,0.7890273632,10.6363031277
1520531473449748223,0.3340229914,0.1112967579,-0.2625049857,0.1444154245,0.7098845636,10.6631681404
1520531473454764223,0.3324684631,0.0725223574,-0.2554931165,0.1985309716,0.7074820680,10.7044809339
1520531473459780223,0.3319166211,0.0314150893,-0.2476892612,0.2803055761,0.7146705417,10.7571365959
1520531473464795223,0.3318695290,-0.0094064249,-0.2377197491,0.2983440917,0.7662321750,10.7650457461
1520531473469812223,0.3298200949,-0.0452795604,-0.2260854354,0.2622670604,0.8429799719,10.7618356282
1520531473474828223,0.3272771232,-0.0756216858,-0.2125141283,0.2466336801,0.9461072659,10.7560765110
1520531473479843223,0.3249920994,-0.0989610145,-0.2024070306,0.2237848935,1.0336462963,10.7399435300
1520531473484859223,0.3249821807,-0.1135630202,-0.1903436195,0.2791030083,1.1307723623,10.7509318204
1520531473489874223,0.3239751544,-0.1249725733,-0.1736546074,0.3079646335,1.2063159611,10.7540636626
1520531473494889223,0.3207119430,-0.1305473093,-0.1598929380,0.2863184146,1.3238334085,10.8041319484
1520531473499906223,0.3189575792,-0.1358322552,-0.1453202081,0.2045438101,1.4233684325,10.8025065492
1520531473504921223,0.3197158116,-0.1399441226,-0.1331781661,0.1672642110,1.4269687572,10.8400545044
1520531473509938223,0.3197149137,-0.1472586015,-0.1221413615,0.1408077214,1.4149794135,10.9147009221
1520531473514952223,0.3199558587,-0.1603955734,-0.1130433066,0.1131486640,1.4425617974,10.9149432436
1520531473519969223,0.3217004645,-0.1752744343,-0.1061257577,0.1071358254,1.4329691423,10.9452268664
1520531473524984223,0.3236900338,-0.1948153492,-0.0992442449,0.0878947420,1.4869319600,10.9523343908
1520531473529999223,0.3276853794,-0.2158036579,-0.0956241321,0.0518177106,1.4617528209,10.9376022272
1520531473535017223,0.3304259951,-0.2338713293,-0.0946849138,-0.0624262221,1.4281857867,10.9840705633
1520531473540032223,0.3301547688,-0.2475621300,-0.0964122074,-0.0323620293,1.3766204070,10.9466396119
