#timestamp [ns],w_RS_S_x [rad s^-1],w_RS_S_y [rad s^-1],w_RS_S_z [rad s^-1],a_RS_S_x [m s^-2],a_RS_S_y [m s^-2],a_RS_S_z [m s^-2]
1520530962735370731,-0.2031777681,0.0127797054,-0.0049627179,0.2105566487,0.1270971665,9.5811366398
1520530962740386731,-0.2051591477,0.0243905930,0.0113626931,0.1973284039,0.1306956180,9.6126397741
1520530962745401731,-0.2076382441,0.0386193738,0.0293323206,0.1732770496,0.1151086657,9.5815111899
1520530962750418731,-0.2070904010,0.0621780116,0.0457442108,0.1925181330,0.0959209204,9.3338059562
1520530962755433731,-0.2007539345,0.0903930535,0.0651569406,0.1155537994,0.1414942507,9.3066191900
1520530962760449731,-0.1946914190,0.1040482402,0.0809418862,-0.0335645970,0.0347823669,9.4534426825
1520530962765464731,-0.1893999517,0.1075155996,0.0925922356,-0.1429982589,-0.0623394844,9.6428698797
1520530962770479731,-0.1863820057,0.1034111742,0.1022951640,-0.1165417692,-0.1270951278,9.7298363093
1520530962775497731,-0.1826154401,0.0963975694,0.1103511860,-0.0010952688,-0.1570826297,9.8298483814
1520530962780512731,-0.1796070403,0.0855927567,0.1194618916,0.0686536586,-0.1235121301,9.9685940211
1520530962785528731,-0.1756043126,0.0666288426,0.1287790298,0.1095409608,-0.0227875190,9.9832056961
1520530962790543731,-0.1663138851,0.0543644697,0.1397607732,0.0915024451,0.0239803624,10.0158756984
1520530962795559731,-0.1582806496,0.0438581096,0.1469705462,0.0638433877,0.0035971294,9.9859490507
1520530962800575731,-0.1477355627,0.0351126962,0.1498602561,0.0710587940,-0.0131913985,9.9452201527
1520530962805590731,-0.1374354392,0.0310293367,0.1527860021,0.0782742003,-0.0923352284,9.8882820450
1520530962810606731,-0.1281373433,0.0292766597,0.1557313997,0.0770716326,-0.1055256794,9.9150359237
1520530962815621731,-0.1150702001,0.0289903949,0.1557049070,0.0638433877,-0.1139186321,9.9209835845
1520530962820638731,-0.1057871861,0.0193849042,0.1531793634,0.0939075805,-0.1415012033,9.9474471639
1520530962825654731,-0.0942451681,0.0071549252,0.1517117950,0.1143512317,-0.1750787274,9.9774966622
1520530962830669731,-0.0852129275,-0.0030378036,0.1508055473,0.1179589348,-0.2206463445,9.9821545577
1520530962835685731,-0.0749259100,-0.0149805326,0.1506952652,0.0494125752,-0.2554160781,9.9584506338
1520530962840701731,-0.0641369063,-0.0257502422,0.1478874829,-0.0888827118,-0.3141631880,9.9691511645
1520530962845715731,-0.0528471437,-0.0344647661,0.1394128651,-0.1622393423,-0.4256775341,9.9839196489
1520530962850732731,-0.0448219802,-0.0423100586,0.1323037133,-0.1249597432,-0.4532606673,10.0672580517
1520530962855748731,-0.0370534316,-0.0513086043,0.1205868557,-0.1213520401,-0.4376721228,10.0811534626
1520530962860763731,-0.0260163242,-0.0582625362,0.1075267629,-0.0347671647,-0.3705270026,10.0802452155
1520530962865778731,-0.0177401677,-0.0655213190,0.0990688611,-0.0227414876,-0.3033760755,9.9684968623
1520530962870794731,-0.0059376457,-0.0672446027,0.0914583015,-0.0251466230,-0.2254317606,9.9300935149
1520530962875810731,0.0086333426,-0.0660536865,0.0841353847,0.0061201375,-0.1822651406,9.8774506093
1520530962880826731,0.0247083917,-0.0648497963,0.0722103873,0.0025124344,-0.1750700170,9.7938043437
1520530962885842731,0.0415428297,-0.0622003429,0.0646238396,-0.0540082481,-0.1522819470,9.6897393081
1520530962890857731,0.0583798630,-0.0578033108,0.0573211762,-0.0059055396,-0.1378960083,9.6973920814
1520530962895872731,0.0727023203,-0.0560362800,0.0524380853,-0.0022978365,-0.2050481530,9.7171788965
1520530962900889731,0.0872799027,-0.0519402597,0.0483839501,-0.0107158105,-0.2554113951,9.7242828078
1520530962905904731,0.1001000203,-0.0469722319,0.0448808431,-0.0251466230,-0.3009776073,9.7012248243
1520530962910920731,0.1109053015,-0.0460880173,0.0427030761,-0.1009083890,-0.3705218513,9.7136515041
1520530962915935731,0.1174378479,-0.0437398126,0.0372978080,-0.1802778580,-0.4484597973,9.7156621888
1520530962920952731,0.1219578475,-0.0431414311,0.0321534811,-0.1466059620,-0.4928306154,9.8095113731
1520530962925968731,0.1259650406,-0.0507049271,0.0280300249,-0.0131209459,-0.4676590628,9.9581041258
1520530962930983731,0.1276927260,-0.0713816129,0.0238107304,0.1179589348,-0.3921234250,9.9904567809
1520530962935998731,0.1281598125,-0.0999480261,0.0276501230,0.2382157061,-0.3513620166,10.0647858748
1520530962941015731,0.1288733601,-0.1314252724,0.0303846345,0.2803055761,-0.2710228864,10.0794057235
1520530962946030731,0.1298455964,-0.1579510686,0.0339681093,0.2562542218,-0.1906786048,10.0249407130
1520530962951046731,0.1288147930,-0.1777699809,0.0354420818,0.2562542218,-0.1235267411,10.0062809268
1520530962956062731,0.1305601555,-0.1888462743,0.0369776129,0.2694824666,-0.0827569969,9.9247623368
1520530962961078731,0.1358374269,-0.1903076853,0.0393916093,0.2213797581,-0.0287919315,9.8112878113
1520530962966091731,0.1368490910,-0.1850601847,0.0386181203,0.1985309716,0.0131797629,9.7092006125
1520530962971109731,0.1391316802,-0.1690302358,0.0376540059,0.1408077214,0.0071885564,9.6574718240
1520530962976124731,0.1441760553,-0.1524055085,0.0326310153,0.1215666379,-0.0155936131,9.5403047830
1520530962981140731,0.1457064691,-0.1331618841,0.0284462042,0.0458048720,-0.0803412953,9.5190246107
1520530962986156731,0.1437245956,-0.1092560287,0.0237624049,-0.0816673055,-0.1774617417,9.5447650862
1520530962991172731,0.1379689899,-0.0818251702,0.0080199017,-0.2127471863,-0.3273440857,9.5612949762
1520530962996186731,0.1279347532,-0.0575939309,-0.0104445801,-0.2644575979,-0.5108085431,9.7118937726
1520530963001203731,0.1128574273,-0.0453085126,-0.0300730576,-0.2247728634,-0.5467858466,9.9195663537
1520530963006219731,0.0965128182,-0.0446957216,-0.0435655692,-0.1923035351,-0.4556537032,9.9958629484
1520530963011234731,0.0791593482,-0.0519740165,-0.0484587685,-0.0936929827,-0.3513361665,10.0656921824
1520530963016249731,0.0623096990,-0.0615977593,-0.0479597681,-0.0552108159,-0.2542087893,10.0907900712
1520530963021266731,0.0487270208,-0.0718059049,-0.0463890976,-0.0215389199,-0.1510853354,10.0880374785
1520530963026281731,0.0371559643,-0.0814319507,-0.0442766230,0.0373868980,-0.0875354823,10.0246461822
1520530963031296731,0.0253459660,-0.0840743359,-0.0385932310,0.0614382523,-0.0443683002,9.9639384993
1520530963036313731,0.0185651473,-0.0876034742,-0.0275149247,0.0915024451,-0.0012015865,9.8996858591
1520530963041329731,0.0102780293,-0.0908454609,-0.0150788656,0.1119460962,0.0167839277,9.8367135596
1520530963046343731,0.0050024985,-0.0952437914,-0.0056333043,0.0842870388,0.0275783456,9.7753786222
1520530963051360731,0.0029970553,-0.1005295643,0.0092104382,0.0770716326,-0.0431703774,9.7313563733
1520530963056375731,-0.0005194779,-0.1072684799,0.0224225902,0.0109304084,-0.0695463154,9.7575930439
1520530963061392731,-0.0015245595,-0.1140013120,0.0337362538,-0.0491979773,-0.1282995131,9.7105876922
1520530963066406731,0.0002329366,-0.1195565964,0.0409954873,-0.1694547486,-0.2038359938,9.6583732443
1520530963071422731,0.0024929481,-0.1230625227,0.0447522523,-0.3318013898,-0.3141442687,9.7425732269
1520530963076438731,0.0002216183,-0.1321050703,0.0479340879,-0.3089526033,-0.4712334437,9.8226919471
1520530963081454731,0.0007089499,-0.1431767570,0.0475781314,-0.2524319208,-0.5323940073,9.8930922270
1520530963086470731,0.0029464896,-0.1594868486,0.0450145250,-0.1562265037,-0.4880333044,9.8909504130
1520530963091485731,0.0069338337,-0.1842536865,0.0450886411,-0.0335645970,-0.3069726538,9.8640127600
1520530963096500731,0.0156942246,-0.2113548291,0.0470299260,0.1504282631,-0.1439038862,9.7621184762
1520530963101517731,0.0289876268,-0.2323394949,0.0506327701,0.2490388155,0.0023835653,9.6506123265
1520530963106532731,0.0443053607,-0.2451740760,0.0578112234,0.4270188370,0.2038252948,9.5406041414
1520530963111549731,0.0629021130,-0.2524863681,0.0707073117,0.4967677644,0.3561106963,9.4375080741
1520530963116564731,0.0850243566,-0.2527967689,0.0809447610,0.6110116971,0.4592278750,9.3677290372
1520530963121580731,0.1079098626,-0.2481620786,0.0944651534,0.7469018487,0.5407588402,9.3628404189
1520530963126595731,0.1308024879,-0.2412094238,0.1128731565,0.7950045572,0.5707336044,9.3007493536
1520530963131612731,0.1582224989,-0.2301705144,0.1294100606,0.8431072657,0.5767255601,9.2084659323
1520530963136627731,0.1823800199,-0.2176839751,0.1489401523,0.8791842971,0.5623330652,9.1674537743
1520530963141642731,0.2057864161,-0.2031580394,0.1684872058,0.8274738854,0.4951852289,9.1866168780
1520530963146657731,0.2244153707,-0.1877467090,0.1831799702,0.8070302343,0.4412255021,9.2310299544
1520530963151674731,0.2387693481,-0.1720347414,0.1938247035,0.7950045572,0.3500917665,9.3253695351
1520530963156690731,0.2516050218,-0.1624351552,0.2017200934,0.7240530621,0.2301832501,9.4447157507
1520530963161706731,0.2586465365,-0.1586443996,0.2017359253,0.6615195411,0.0671050228,9.6256157566
1520530963166720731,0.2621543859,-0.1644626990,0.1987089246,0.6266450774,-0.0671959885,9.7783270273
1520530963171737731,0.2626369777,-0.1746405645,0.1910548981,0.5773398012,-0.0516033229,9.8729253935
1520530963176753731,0.2618691913,-0.1801560414,0.1831682287,0.5148062801,0.0119559899,9.9246064154
1520530963181767731,0.2616193900,-0.1784049190,0.1820998503,0.5665166917,0.1738359197,9.9053509339
1520530963186784731,0.2638934288,-0.1743472308,0.1905136958,0.6146194003,0.3800843261,9.8244936725
1520530963191799731,0.2686939577,-0.1621378041,0.2019611252,0.5929731814,0.5419699691,9.7269264105
1520530963196814731,0.2770192212,-0.1467290536,0.2161319335,0.6098091294,0.6355016109,9.6836720050
1520530963201831731,0.2838386676,-0.1313274496,0.2327404551,0.6687349473,0.7158394299,9.6283993456
1520530963206847731,0.2899027160,-0.1191408404,0.2528430196,0.7120273850,0.7302257433,9.6488825227
1520530963211862731,0.2879219911,-0.1089956167,0.2724038659,0.7505095518,0.7314218866,9.6717496706
1520530963216878731,0.2866901915,-0.1023459834,0.2916660891,0.7529146872,0.6774603802,9.7194267829
1520530963221894731,0.2824351573,-0.0988918350,0.3068512706,0.8238661823,0.6318875182,9.8256978633
1520530963226909731,0.2749100707,-0.0977700427,0.3220247348,0.8286764532,0.5647352798,9.9570387929
1520530963231925731,0.2626034926,-0.0995544967,0.3336677393,0.8527278074,0.4616073302,10.0219853164
1520530963236940731,0.2425013778,-0.1027879990,0.3412559083,0.7938019895,0.3824686516,10.1121211250
1520530963241957731,0.2211394758,-0.1060110671,0.3447882225,0.6711400828,0.3021357965,10.1587170007
1520530963246971731,0.1980173020,-0.1071820210,0.3434695392,0.6422784577,0.2433801636,10.1904331064
1520530963251988731,0.1708759386,-0.1042620550,0.3373196205,0.5220216864,0.1498565766,10.2579370259
1520530963257004731,0.1432354119,-0.0978413010,0.3295740370,0.4210059985,0.0995005463,10.2961579694
1520530963262019731,0.1108158204,-0.0899443706,0.3140026056,0.3248005814,-0.0072154586,10.3088198847
1520530963267035731,0.0786439211,-0.0843769610,0.2978718311,0.1997335393,-0.0683618796,10.3310154380
1520530963272052731,0.0444626073,-0.0750085000,0.2766333184,0.1552385339,-0.1582939459,10.3687248321
1520530963277067731,0.0065033704,-0.0694185883,0.2513147180,0.1287820442,-0.2470282767,10.3074752449
1520530963282082731,-0.0327113844,-0.0600273297,0.2208869793,0.0349817626,-0.2913891669,10.3525929751
1520530963287098731,-0.0706601459,-0.0451058288,0.1929340587,0.0313740595,-0.3489476263,10.3340899153
1520530963292114731,-0.1078539053,-0.0272607176,0.1614848722,0.0241586532,-0.4089040855,10.2819221346
1520530963297128731,-0.1435463365,-0.0131986440,0.1283807098,-0.0131209459,-0.4592650798,10.2521183608
1520530963302145731,-0.1814955763,0.0034806337,0.0969240310,0.0049175698,-0.4892449953,10.1845676691
1520530963307160731,-0.2156835155,0.0146272675,0.0646064751,0.0181458146,-0.5048348511,10.1902648347
1520530963312177731,-0.2456038675,0.0205219124,0.0354875201,0.0746664971,-0.5048392531,10.1594989542
1520530963317191731,-0.2717572931,0.0229141355,0.0090403462,0.1215666379,-0.4676695527,10.1229797449
1520530963322208731,-0.2928855380,0.0232620801,-0.0149968107,0.1636565079,-0.4496857244,10.0656074741
1520530963327224731,-0.3097384960,0.0241864548,-0.0360614508,0.2237848935,-0.4005256501,9.9615434664
1520530963332239731,-0.3248314879,0.0236451265,-0.0536233768,0.2803055761,-0.3477678735,9.8772675132
1520530963337255731,-0.3326269617,0.0292206294,-0.0692583317,0.3717007222,-0.2758265662,9.7833362522
1520530963342271731,-0.3338896344,0.0339238101,-0.0846415448,0.4486650559,-0.2110789776,9.7139574909
1520530963347286731,-0.3323858676,0.0389136309,-0.0978633016,0.5232242541,-0.1463312016,9.5888192300
1520530963352303731,-0.3230810207,0.0494318834,-0.1069990998,0.6194296711,-0.0899790945,9.4785863349
1520530963357318731,-0.3102583901,0.0581966512,-0.1137198575,0.6879760307,-0.0552093609,9.4116430304
1520530963362333731,-0.2939199517,0.0652144903,-0.1204604879,0.7096222496,0.0083433957,9.3660467502
1520530963367349731,-0.2775794472,0.0731035692,-0.1261122654,0.6819631922,0.0611077285,9.3465080684
1520530963372365731,-0.2577103818,0.0865208629,-0.1282112418,0.6903811662,0.0455182474,9.3557384860
1520530963377381731,-0.2373364292,0.1022723434,-0.1313755505,0.6434810254,0.0059502661,9.3027749495
1520530963382396731,-0.2134385770,0.1209332202,-0.1323597953,0.5929731814,-0.0000415023,9.2974616888
1520530963387412731,-0.1910509799,0.1384308818,-0.1344323157,0.5881629106,-0.0480067446,9.3173117298
1520530963392428731,-0.1664089578,0.1486360752,-0.1333180631,0.5436679052,-0.1031637386,9.3666086526
1520530963397442731,-0.1432783354,0.1565110584,-0.1327598865,0.5917706137,-0.0995700637,9.3347590556
1520530963402459731,-0.1156324338,0.1568045319,-0.1295624522,0.6338604837,-0.0564042866,9.3238479868
1520530963407474731,-0.0889992115,0.1498049856,-0.1234427233,0.5568961500,-0.0396103264,9.2629871101
1520530963412490731,-0.0628682851,0.1407553527,-0.1135499801,0.5292370926,-0.0216210659,9.3108866884
1520530963417506731,-0.0314621022,0.1320071846,-0.1066408197,0.4955651967,0.0035635055,9.3321084650
1520530963422521731,-0.0045803136,0.1212117252,-0.0975744528,0.4606907330,0.0311464513,9.2963945543
1520530963427537731,0.0268219488,0.1077933919,-0.0877248570,0.4378419465,0.0527327585,9.2931094704
1520530963432553731,0.0559681946,0.0975750318,-0.0762233314,0.3248005814,0.0731269497,9.2872170032
1520530963437569731,0.0871241372,0.0905794430,-0.0709236412,0.2598619249,0.0755302882,9.3261974881
1520530963442585731,0.1167633169,0.0789298522,-0.0689032708,0.2646721958,0.0587419477,9.4156521231
1520530963447599731,0.1443914081,0.0690379790,-0.0706534706,0.1492256953,0.0443612539,9.5597335469
1520530963452616731,0.1710094662,0.0562347804,-0.0735062180,0.1095409608,0.0323729405,9.6705351828
1520530963457631731,0.1910935392,0.0448932289,-0.0790411741,0.1035281222,0.0131871620,9.7647460778
1520530963462646731,0.2131894102,0.0344258902,-0.0843026488,0.1432128568,0.0191797733,9.7201924940
1520530963467663731,0.2325250792,0.0245293111,-0.0854963550,0.0662485231,0.0599565420,9.6546596547
1520530963472679731,0.2453273315,0.0152143980,-0.0872145720,-0.0804647378,0.0072057899,9.6340583874
1520530963477695731,0.2623984177,0.0070827223,-0.0948838407,-0.0491979773,-0.0023897687,9.6465469941
1520530963482711731,0.2764613472,0.0021448969,-0.0987354121,-0.0107158105,-0.0431635402,9.6148343031
1520530963487726731,0.2842437819,-0.0028019458,-0.1001404025,-0.0047029719,-0.0371683064,9.6043106355
1520530963492742731,0.2920307524,-0.0027879672,-0.1042130594,0.0602356846,0.0275802188,9.5873454028
1520530963497756731,0.2988125669,-0.0045307024,-0.1053211830,0.1624539402,0.1067155257,9.5572196977
1520530963502773731,0.3033441669,-0.0007511294,-0.1015130414,0.1828975913,0.2014460269,9.5522797582
1520530963507788731,0.3058652861,0.0021498603,-0.0963551057,0.2899261178,0.2338144826,9.4954235262
1520530963512803731,0.3056195660,0.0030093468,-0.0909370518,0.3789161285,0.2493963773,9.5782165153
1520530963517821731,0.3036104847,0.0000772315,-0.0844624474,0.3632827482,0.2793761054,9.6410952211
1520530963522835731,0.3016007409,-0.0043161770,-0.0763756830,0.3837263994,0.3549203599,9.6873083249
1520530963527851731,0.2960742641,-0.0081303801,-0.0674663006,0.4390445142,0.3836954217,9.7297411545
1520530963532868731,0.2885340485,-0.0160320385,-0.0558788487,0.4642984361,0.3717020506,9.8317757097
1520530963537882731,0.2784771909,-0.0274349380,-0.0429606771,0.5063883061,0.4004781427,9.9045530377
1520530963542898731,0.2671596129,-0.0429220837,-0.0284480197,0.4438547850,0.4184701193,9.9818456615
1520530963547914731,0.2510692114,-0.0546121748,-0.0179557829,0.4065751859,0.4520489547,10.0112293756
1520530963552930731,0.2347305456,-0.0645562424,-0.0066381031,0.3464468003,0.4820321482,10.0373525619
1520530963557946731,0.2201482940,-0.0741980383,0.0008908901,0.2995466595,0.4868323627,10.0866144279
1520530963562961731,0.2017969127,-0.0832570851,0.0078902385,0.3151800397,0.4808354430,10.1736289054
1520530963567977731,0.1814306559,-0.0946436252,0.0132522607,0.3067620657,0.4796369582,10.1330369717
1520530963572993731,0.1588072847,-0.1028265500,0.0189134832,0.3608776128,0.5000181307,10.1197067819
1520530963578008731,0.1419639630,-0.1107150974,0.0242956483,0.4282214047,0.5551733452,10.0922681982
1520530963583024731,0.1231171545,-0.1148222610,0.0318748144,0.4835395195,0.6211217601,10.0463418377
1520530963588040731,0.1060353303,-0.1157286047,0.0413689887,0.5605038532,0.6798736466,10.0292654011
1520530963593056731,0.0904700924,-0.1122730593,0.0544108056,0.6446835931,0.7290318478,9.9691287626
1520530963598071731,0.0721431628,-0.1070710181,0.0677416408,0.6410758899,0.7650063415,9.9656423657
1520530963603087731,0.0593493354,-0.0998329468,0.0832421369,0.6735452182,0.7530124084,9.9420951435
1520530963608103731,0.0445408560,-0.0934596186,0.0949520550,0.6170245357,0.7542159509,9.9391576800
1520530963613117731,0.0304869277,-0.0885516588,0.1098960082,0.6194296711,0.7062501466,9.9356946116
1520530963618135731,0.0181974622,-0.0783922610,0.1227123427,0.6386707545,0.6354993631,9.9576570568
1520530963623150731,0.0059038215,-0.0696825014,0.1328121029,0.5917706137,0.5647537308,9.9837497120
1520530963628166731,-0.0091602653,-0.0653438644,0.1426131048,0.4787292487,0.4400519308,9.9512694239
1520530963633181731,-0.0219713150,-0.0618537281,0.1432046765,0.3079646335,0.3213503286,9.9728037538
1520530963638197731,-0.0332801033,-0.0580519490,0.1364909318,0.2069489456,0.1786604857,9.9332510915
1520530963643212731,-0.0443379339,-0.0504438618,0.1230419730,0.0554254137,0.0107926276,9.9314032042
1520530963648227731,-0.0548883212,-0.0369976891,0.1058489000,-0.0612236544,-0.0551510107,9.9198193248
1520530963653244731,-0.0644408090,-0.0261611999,0.0840346721,-0.0720467638,-0.1091114868,9.9176530027
1520530963658260731,-0.0714815826,-0.0156121971,0.0611313702,-0.0443877064,-0.1318973091,9.9127574280
1520530963663275731,-0.0802807934,-0.0065295472,0.0414667708,-0.0095132428,-0.1235060422,9.8891669170
1520530963668292731,-0.0868226311,-0.0024075609,0.0247361832,0.1359974505,-0.0671577752,9.8400477441
1520530963673307731,-0.0911066566,-0.0032476951,0.0114806994,0.2622670604,-0.0036131670,9.8201624349
1520530963678323731,-0.0928795051,-0.0081786115,0.0027887053,0.3692955868,0.1138942587,9.8248168094
1520530963683338731,-0.0941521866,-0.0189552323,0.0008149635,0.4823369518,0.2290029353,9.7910642468
1520530963688354731,-0.0936664820,-0.0308996157,-0.0000887541,0.4847420873,0.2853623479,9.7933101656
1520530963693369731,-0.0934291321,-0.0419757714,0.0011790314,0.5160088478,0.2937538957,9.7895112169
1520530963698385731,-0.0899186011,-0.0466321749,-0.0004863475,0.5280345249,0.3285280314,9.8149274225
1520530963703401731,-0.0846342454,-0.0425558230,0.0014287958,0.5124011447,0.3201352660,9.7860341748
1520530963708417731,-0.0821098605,-0.0335190043,0.0004108606,0.5148062801,0.2685720405,9.7453860079
1520530963713431731,-0.0755589704,-0.0186456356,-0.0032755394,0.5003754675,0.2733697261,9.6362802595
1520530963718448731,-0.0689987538,0.0029288489,-0.0066402625,0.4931600612,0.2841625519,9.5375577297
1520530963723464731,-0.0644461991,0.0268350788,-0.0105245590,0.5857577751,0.3537054846,9.4715085572
1520530963728479731,-0.0576298066,0.0495642734,-0.0098226680,0.5400602021,0.3848866947,9.4463557795
1520530963733495731,-0.0540912525,0.0647183756,-0.0099841476,0.4642984361,0.3884900165,9.5516826460
1520530963738512731,-0.0493139794,0.0664678250,-0.0097091310,0.4618933007,0.3968841868,9.6144536442
1520530963743527731,-0.0455522908,0.0582996086,-0.0057201898,0.4691087070,0.3381257441,9.6353593027
1520530963748541731,-0.0415331914,0.0533308930,0.0004571058,0.4642984361,0.2673768338,9.6505829853
1520530963753558731,-0.0334902724,0.0515733531,0.0050281124,0.4101828891,0.2613853464,9.6429805519
1520530963758574731,-0.0294661039,0.0539052762,0.0053089754,0.3753084254,0.2589897816,9.6677273602
1520530963763589731,-0.0239358557,0.0559507760,0.0039615396,0.4113854568,0.2374024442,9.6464786655
1520530963768606731,-0.0156396463,0.0600406928,0.0012718020,0.4053726182,0.1642553467,9.6779864072
1520530963773622731,-0.0106185898,0.0591808916,-0.0033434820,0.4017649151,0.1354762575,9.6838603063
1520530963778636731,-0.0040914104,0.0577418259,-0.0090481960,0.3741058577,0.1270844287,9.6794891322
1520530963783652731,0.0026871971,0.0554243344,-0.0131367707,0.3680930191,0.0947081056,9.6644713582
1520530963788669731,0.0079492614,0.0484521125,-0.0202341192,0.3981572119,0.0383461642,9.6258829402
1520530963793684731,0.0132180138,0.0467262690,-0.0278325440,0.4053726182,0.0587309894,9.6501978542
1520530963798699731,0.0199949984,0.0449995594,-0.0348926773,0.3825238317,0.1198889306,9.6503606139
1520530963803715731,0.0257699984,0.0453106907,-0.0413942904,0.4210059985,0.1642541291,9.6208891877
1520530963808731731,0.0255177822,0.0470698259,-0.0454386736,0.4667035716,0.2302032933,9.6668658401
1520530963813745731,0.0265255728,0.0488177984,-0.0451566561,0.5051857384,0.3069452833,9.6420114175
1520530963818763731,0.0275298860,0.0473576275,-0.0438169089,0.5304396603,0.3728960397,9.6939977756
1520530963823779731,0.0247602711,0.0418129541,-0.0411485546,0.5424653375,0.4076701754,9.7542782998
1520530963828793731,0.0237536996,0.0362558582,-0.0336136412,0.5797449366,0.4760182761,9.7073630326
1520530963833810731,0.0197361605,0.0336092408,-0.0252392587,0.5977834523,0.4868091350,9.7339062436
1520530963838825731,0.0169790752,0.0338769610,-0.0168449789,0.5689218272,0.5239847360,9.6969623089
1520530963843841731,0.0142221623,0.0329733156,-0.0062952242,0.5472756083,0.5599606346,9.6622736012
1520530963848857731,0.0102095943,0.0338225841,0.0023763813,0.5136037124,0.5635606783,9.6788678501
1520530963853872731,0.0064480585,0.0335020423,0.0126619031,0.4895523581,0.5635625515,9.6500483523
1520530963858889731,0.0036935645,0.0340538627,0.0237638649,0.4715138424,0.5335854458,9.6583881694
1520530963863903731,0.0024429940,0.0325702243,0.0334947354,0.4438547850,0.4868211235,9.6819458690
1520530963868918731,-0.0003136562,0.0313730090,0.0448539046,0.5075908738,0.5215912318,9.7033723253
1520530963873935731,-0.0020613710,0.0330907613,0.0559628919,0.5508833115,0.5395749664,9.6762040922
1520530963878951731,-0.0053195721,0.0292555914,0.0729844507,0.5400602021,0.5755500220,9.7030036685
1520530963883967731,-0.0075712960,0.0286362431,0.0862409539,0.5196165509,0.6007335631,9.7554745763
1520530963888983731,-0.0088177814,0.0277244473,0.1000344590,0.5304396603,0.6307112308,9.8366900741
1520530963893998731,-0.0128366926,0.0209846063,0.1135180904,0.5508833115,0.6307096386,9.8841389902
1520530963899013731,-0.0186121906,0.0151138591,0.1286349335,0.5328447958,0.6546938519,9.9249662177
1520530963904029731,-0.0236297462,0.0115715698,0.1448503447,0.5508833115,0.6690821321,9.9259387537
1520530963909045731,-0.0271395480,0.0097861912,0.1581002892,0.5051857384,0.6307131976,9.9264209647
1520530963914060731,-0.0324042507,0.0153036757,0.1643748846,0.4510701913,0.6007389017,9.9072204785
1520530963919077731,-0.0379269365,0.0170381620,0.1687272254,0.5051857384,0.6139252317,9.9113294641
1520530963924092731,-0.0421930811,0.0199437776,0.1711923036,0.5087934415,0.5263876998,9.9183525744
1520530963929107731,-0.0437015798,0.0187747350,0.1722683951,0.4186008630,0.4232686479,9.9332767442
1520530963934123731,-0.0447145100,0.0161657207,0.1671098822,0.3572699097,0.3285413311,9.9095610569
1520530963939140731,-0.0442289701,0.0083196598,0.1592030945,0.3296108523,0.2673873237,9.8808363106
1520530963944154731,-0.0404716134,0.0057270847,0.1486247960,0.4751215456,0.3033502035,9.7980348418
1520530963949170731,-0.0326843371,0.0051546521,0.1459004224,0.5689218272,0.4220578000,9.7144938621
1520530963954187731,-0.0221209065,0.0089344028,0.1505090004,0.6098091294,0.5563583430,9.5791562255
1520530963959202731,-0.0138127007,0.0164968956,0.1567739543,0.6663298119,0.6714714216,9.4994680424
1520530963964217731,-0.0044933719,0.0240401146,0.1703417806,0.6795580568,0.7650033444,9.4585730399
1520530963969234731,0.0106053438,0.0304164178,0.1852427093,0.6615195411,0.7662038897,9.4668824541
1520530963974249731,0.0262010706,0.0330063760,0.1995727127,0.5965808846,0.7422261389,9.5291315435
1520530963979264731,0.0392813432,0.0329692467,0.2152401051,0.5472756083,0.7134506087,9.5877467127
1520530963984280731,0.0531127914,0.0335268367,0.2265818091,0.5568961500,0.6403022936,9.6539666073
1520530963989296731,0.0674429209,0.0308779369,0.2384392175,0.4113854568,0.5299927075,9.6671119379
1520530963994311731,0.0817760063,0.0334877989,0.2451962695,0.4522727590,0.4376557105,9.6342639744
1520530963999328731,0.0948431456,0.0317380555,0.2475935744,0.4606907330,0.3764988933,9.6539981225
1520530964004343731,0.1086672078,0.0288077724,0.2556620507,0.4642984361,0.3573123655,9.5621723444
1520530964009359731,0.1227439842,0.0296779698,0.2591596801,0.4606907330,0.3573126465,9.4366959125
1520530964014373731,0.1378261401,0.0337676311,0.2575395245,0.4679061393,0.3081473272,9.3867014350
1520530964019390731,0.1496451514,0.0407705862,0.2556771213,0.4378419465,0.2541883496,9.3254530521
1520530964024406731,0.1629673923,0.0489600662,0.2462455250,0.3753084254,0.1390757393,9.2936339409
1520530964029422731,0.1720112766,0.0580467927,0.2276299718,0.2261900290,-0.0036103572,9.3045216709
1520530964034438731,0.1815526149,0.0648091958,0.2065607874,0.1552385339,-0.1439042608,9.3402134006
1520530964039452731,0.1905915830,0.0744976305,0.1809154870,0.0217535178,-0.2206388517,9.4450183115
1520530964044468731,0.1951023775,0.0809805201,0.1547130420,0.0277663563,-0.2146436179,9.5100340009
1520530964049485731,0.1976033891,0.0848263212,0.1336346950,0.0722613617,-0.2134479429,9.5305183357
1520530964054500731,0.1983465359,0.0877892667,0.1155289506,0.0638433877,-0.1319057385,9.5921143856
1520530964059515731,0.1955700015,0.0889996130,0.0984985855,0.1239717734,-0.0155938004,9.5914157068
1520530964064531731,0.1912896650,0.0884399368,0.0893035131,0.2466336801,0.1115055312,9.6028814246
1520530964069547731,0.1862604384,0.0881560528,0.0857935279,0.3296108523,0.1942397579,9.6484788495
1520530964074563731,0.1809744950,0.0814506842,0.0862932899,0.3163826074,0.2218210179,9.7624708178
1520530964079579731,0.1721580500,0.0660038583,0.0861918017,0.4077777536,0.2877666230,9.8451912846
1520530964084595731,0.1653432805,0.0426838820,0.0884614695,0.4642984361,0.3741003315,9.9026641522
1520530964089610731,0.1597853462,0.0155581882,0.0974635509,0.5268319572,0.4112688143,9.9008570958
1520530964094625731,0.1549791953,-0.0136090871,0.1072603083,0.5977834523,0.4700211691,9.9070820636
1520530964099641731,0.1524339812,-0.0451145653,0.1200110853,0.5797449366,0.4820139782,9.9537317042
1520530964104657731,0.1503885146,-0.0751468984,0.1268200346,0.5593012855,0.4748207279,9.9318569711
1520530964109673731,0.1518644894,-0.1019689813,0.1322941742,0.5568961500,0.4580329493,9.9539774870
1520530964114688731,0.1553511686,-0.1264497306,0.1342652681,0.5436679052,0.4292546094,10.0261872320
1520530964119703731,0.1585913475,-0.1462633270,0.1343785768,0.5015780352,0.3872879727,9.9940978051
1520530964124721731,0.1638459237,-0.1619916533,0.1326254536,0.4919574935,0.3657041943,9.9395917278
1520530964129735731,0.1693441069,-0.1806213431,0.1262503526,0.4570830299,0.3489189445,9.9097318024
1520530964134752731,0.1753537714,-0.1940117420,0.1220787009,0.4234111339,0.3585146904,9.8809965904
1520530964139766731,0.1826223529,-0.2044827043,0.1160331251,0.3849289671,0.3525219854,9.8825391429
1520530964144782731,0.1883876774,-0.2099934360,0.1073226832,0.3945495088,0.3681100616,9.8917274526
1520530964149798731,0.1946568226,-0.2178496157,0.1040044411,0.4137905922,0.4016844949,9.9403174763
1520530964154815731,0.1991678914,-0.2236609654,0.0985406604,0.4017649151,0.4100794145,9.9322913338
1520530964159831731,0.2011719075,-0.2265660103,0.0955386909,0.3921443734,0.4088810233,9.9788719018
1520530964164844731,0.2051878549,-0.2280118881,0.0920030113,0.4258162693,0.3884930137,10.0227255092
1520530964169861731,0.2099570402,-0.2294552851,0.0876542938,0.3909418056,0.4172751000,9.9602811182
1520530964174878731,0.2089456036,-0.2317765571,0.0838507335,0.4149931599,0.3789007332,9.9926244666
1520530964179893731,0.2096951955,-0.2323473759,0.0795161528,0.4330316756,0.3357302731,10.0006259947
1520530964184908731,0.2079364213,-0.2285440408,0.0735963103,0.4161957276,0.3093504950,10.0577606447
1520530964189924731,0.2011512745,-0.2250340593,0.0676835791,0.4077777536,0.2661820954,10.0067503423
1520530964194939731,0.1968821073,-0.2194841299,0.0620522882,0.4161957276,0.3033547929,9.9473628157
1520530964199956731,0.1898477748,-0.2139323699,0.0553439477,0.4366393787,0.3129463240,10.0040995288
1520530964204972731,0.1833177532,-0.2080933990,0.0502601722,0.4282214047,0.2757736265,9.9705155391
1520530964209987731,0.1745285473,-0.2013855312,0.0468105418,0.4618933007,0.3081477955,9.9643455055
1520530964215002731,0.1647346753,-0.1938017184,0.0425578099,0.4534753267,0.3273346979,9.9411658524
1520530964220019731,0.1536861987,-0.1856392709,0.0396645872,0.4582855976,0.3477197104,9.9457477292
1520530964225034731,0.1433997575,-0.1716495660,0.0370849720,0.4823369518,0.3501161181,9.9397005697
1520530964230050731,0.1333628156,-0.1573610937,0.0318016542,0.4378419465,0.3824963749,9.9029134781
1520530964235066731,0.1198101561,-0.1404478970,0.0251921488,0.4029674828,0.3621137039,9.9276778265
1520530964240081731,0.1077682377,-0.1212023048,0.0183270819,0.4077777536,0.3141477123,9.9090834766
1520530964245096731,0.0944721578,-0.0999160564,0.0109388184,0.4137905922,0.3213420865,9.9090179353
1520530964250114731,0.0801724665,-0.0774646637,0.0035613141,0.4077777536,0.2913640443,9.9056192622
1520530964255129731,0.0626056276,-0.0547209811,-0.0046195374,0.4534753267,0.2937587660,9.8761185325
1520530964260145731,0.0470453963,-0.0345982432,-0.0130946764,0.4739189778,0.2649778036,9.8933797700
1520530964265158731,0.0287184589,-0.0159320540,-0.0221168886,0.4979703321,0.2841621772,9.9349641418
1520530964270176731,0.0096373976,-0.0001923888,-0.0265606512,0.5593012855,0.2913522431,9.9552787590
1520530964275191731,-0.0081855034,0.0146641454,-0.0274963201,0.5749346657,0.2949484468,9.9388530699
1520530964280208731,-0.0282788912,0.0236950168,-0.0295544338,0.6158219680,0.3584997048,9.9593117142
1520530964285222731,-0.0478711790,0.0309748641,-0.0305446358,0.6098091294,0.3776864199,9.9244872114
1520530964290238731,-0.0674604363,0.0385373549,-0.0282860640,0.6242399420,0.4004689640,9.9673238596
1520530964295253731,-0.0847951707,0.0426121301,-0.0290343746,0.6855708953,0.4220487150,9.9225443834
1520530964300268731,-0.1011274383,0.0443547661,-0.0292612450,0.6879760307,0.4208493872,9.9213599986
1520530964305285731,-0.1169502947,0.0490019747,-0.0259497213,0.6759503536,0.4832056258,9.8993355084
1520530964310302731,-0.1325237850,0.0533629962,-0.0245347087,0.6795580568,0.5167812767,9.8899705001
1520530964315316731,-0.1445853839,0.0527704022,-0.0226229309,0.6975965724,0.4975936250,9.8642464667
1520530964320334731,-0.1553794880,0.0609227501,-0.0217289777,0.6278476451,0.5179844445,9.8497976098
1520530964325349731,-0.1629085969,0.0684972510,-0.0221982676,0.6218348065,0.4999978065,9.8022257731
1520530964330364731,-0.1714432932,0.0772434521,-0.0250917113,0.5737320980,0.4736204635,9.8282868678
1520530964335380731,-0.1777193736,0.0860007373,-0.0317769980,0.5364524989,0.4532379798,9.8542367703
1520530964340396731,-0.1817338077,0.0950517500,-0.0390053540,0.4919574935,0.4352543389,9.8140123591
1520530964345410731,-0.1839880993,0.1029291726,-0.0429993186,0.5400602021,0.4424454350,9.8054021331
1520530964350427731,-0.1847372835,0.1081818115,-0.0459339078,0.5785423689,0.4784166506,9.8363703779
1520530964355442731,-0.1885038569,0.1122684592,-0.0491423345,0.5953783168,0.5251818159,9.8535930622
1520530964360457731,-0.1864876602,0.1160550604,-0.0483055305,0.6338604837,0.5683478740,9.8380685328
1520530964365473731,-0.1814595783,0.1151719495,-0.0442633457,0.7000017079,0.6534816928,9.8338552997
1520530964370490731,-0.1802058638,0.1102057930,-0.0394336457,0.7324710361,0.7218301681,9.8753097932
1520530964375506731,-0.1751798128,0.1052316438,-0.0310938498,0.7517121195,0.7374174950,9.8762694548
1520530964380521731,-0.1688996002,0.0982168383,-0.0222308574,0.7577249581,0.7745903798,9.8436346493
1520530964385537731,-0.1653864897,0.0894540995,-0.0139171613,0.7084196819,0.7290268838,9.8627532948
1520530964390553731,-0.1568481906,0.0815740393,-0.0080410435,0.7096222496,0.6882560158,9.8604570594
1520530964395567731,-0.1480563462,0.0763209088,-0.0037686600,0.6434810254,0.6211093033,9.8600041765
1520530964400584731,-0.1397770808,0.0658321296,-0.0030524553,0.5905680460,0.6103211606,9.8709890186
1520530964405599731,-0.1304910794,0.0568021237,-0.0028680938,0.5340473635,0.5695547882,9.8134717161
1520530964410616731,-0.1191892772,0.0512673344,-0.0018491513,0.4883497904,0.5012073431,9.7465788112
1520530964415630731,-0.1104017806,0.0457359312,-0.0024488171,0.4823369518,0.4616361775,9.7466759247
1520530964420647731,-0.0985991331,0.0416706448,-0.0060189729,0.4330316756,0.4256658048,9.7239480331
1520530964425663731,-0.0900610809,0.0399380685,-0.0106474602,0.4089803213,0.4232693972,9.6893201543
1520530964430679731,-0.0795057342,0.0419884512,-0.0130864141,0.4065751859,0.4268670058,9.6823671927
1520530964435694731,-0.0654329959,0.0434574432,-0.0155363482,0.4522727590,0.4220668850,9.6459006153
1520530964440709731,-0.0541235332,0.0455073929,-0.0177061563,0.4101828891,0.4160744610,9.6009925248
1520530964445724731,-0.0425639634,0.0452198089,-0.0174593028,0.4234111339,0.4232682733,9.6264239201
1520530964450741731,-0.0322632166,0.0443540625,-0.0191083831,0.4715138424,0.4724292842,9.6793663968
1520530964455757731,-0.0227163701,0.0420245423,-0.0183322656,0.5184139832,0.5024041421,9.7265285683
1520530964460772731,-0.0146745489,0.0402706446,-0.0151139885,0.5039831707,0.5287863553,9.7568590463
1520530964465787731,-0.0076340064,0.0417230397,-0.0124104823,0.5027806029,0.5287864490,9.7824379183
1520530964470804731,-0.0013535155,0.0402685784,-0.0124332658,0.5424653375,0.5287833582,9.7925109471
1520530964475820731,0.0034173320,0.0364780796,-0.0108477583,0.5424653375,0.5227876561,9.8308675443
1520530964480835731,0.0081915236,0.0353107700,-0.0095127889,0.5087934415,0.4544392744,9.8382348019
1520530964485850731,0.0106992742,0.0306459600,-0.0082002960,0.4919574935,0.4676311303,9.8221157946
1520530964490866731,0.0119571287,0.0303492403,-0.0060404856,0.5208191186,0.4784211463,9.8102029096
1520530964495881731,0.0099487140,0.0303418968,-0.0036018387,0.5003754675,0.4532407896,9.8301828990
1520530964500898731,0.0114516652,0.0259680774,-0.0022852559,0.5316422281,0.4676280395,9.8461345508
1520530964505913731,0.0134531212,0.0180956554,-0.0001846458,0.5436679052,0.4484408562,9.8448740657
1520530964510929731,0.0116854868,0.0090496625,0.0043489859,0.5749346657,0.4904083358,9.8456909513
1520530964515944731,0.0111809015,0.0046655859,0.0091863992,0.5292370926,0.4796196311,9.8670648587
1520530964520961731,0.0101801401,0.0043577821,0.0151380527,0.5340473635,0.4712252735,9.8356483371
1520530964525976731,0.0094287448,0.0037637912,0.0191931951,0.4642984361,0.4724298462,9.8363260610
1520530964530992731,0.0074197106,0.0020023131,0.0237828706,0.4907549258,0.4592372410,9.7721634950
1520530964536008731,0.0056640492,0.0040391303,0.0246133370,0.4570830299,0.4472484592,9.7457736190
1520530964541024731,0.0039079016,0.0049067672,0.0267876404,0.4667035716,0.4208666207,9.7213006810
1520530964546039731,0.0031615637,0.0072229795,0.0322177432,0.4799318164,0.4004802032,9.6921382053
1520530964551056731,0.0019104326,0.0095462791,0.0349433205,0.4787292487,0.3645060842,9.7003199982
1520530964556070731,0.0006563534,0.0095377741,0.0379216589,0.5027806029,0.3860887386,9.7116862885
1520530964561086731,0.0026665598,0.0063194917,0.0430338432,0.5111985769,0.3956812063,9.6976492709
1520530964566101731,0.0001488160,0.0013584143,0.0454356311,0.4775266810,0.4052769522,9.6875083622
1520530964571118731,-0.0023607929,0.0007608205,0.0505762242,0.4847420873,0.3537133520,9.7211905881
1520530964576134731,-0.0061276448,-0.0007128760,0.0562535734,0.4354368110,0.3657085963,9.7239830900
1520530964581149731,-0.0073807085,0.0013241381,0.0570831063,0.4053726182,0.3705074995,9.7614596456
1520530964586164731,-0.0081280971,0.0048146296,0.0592755507,0.4125880245,0.3693077971,9.7869577516
1520530964591181731,-0.0101333403,0.0086018409,0.0593081846,0.4149931599,0.3729050311,9.8032008488
1520530964596195731,-0.0113852162,0.0115130086,0.0601443867,0.4077777536,0.3812995760,9.7370206884
1520530964601212731,-0.0128881243,0.0155939865,0.0593666726,0.4125880245,0.3836974822,9.7125665064
1520530964606228731,-0.0148976760,0.0173466050,0.0574899236,0.4282214047,0.3777005625,9.7217173390
1520530964611243731,-0.0151523581,0.0164796373,0.0547782621,0.4630958684,0.4220660421,9.6818217324
1520530964616257731,-0.0156559280,0.0141410799,0.0574668698,0.4691087070,0.4184681525,9.6957124426
1520530964621275731,-0.0156584802,0.0121006598,0.0577218541,0.4787292487,0.4448484925,9.7072145162
1520530964626291731,-0.0176669381,0.0123861576,0.0596216323,0.4871472227,0.4496443986,9.7292086386
1520530964631306731,-0.0194245323,0.0141366893,0.0585560543,0.4667035716,0.4784253610,9.6968395297
1520530964636323731,-0.0211847649,0.0144324837,0.0566677231,0.4606907330,0.4664344250,9.7387469307
1520530964641337731,-0.0239466763,0.0161797078,0.0566861956,0.4306265402,0.4448522389,9.7367363173
1520530964646353731,-0.0244494464,0.0173508765,0.0545316542,0.4246137016,0.4400561455,9.7298266562
1520530964651369731,-0.0246965622,0.0217273734,0.0524011001,0.4570830299,0.4412527571,9.7085908592
1520530964656385731,-0.0254483455,0.0237689550,0.0516064241,0.4438547850,0.3848941875,9.7285310210
1520530964661401731,-0.0279595657,0.0281525785,0.0465040656,0.4246137016,0.3261378053,9.6904248490
1520530964666415731,-0.0289642318,0.0290285236,0.0457009641,0.4342342433,0.3033533880,9.6798941304
1520530964671432731,-0.0287095378,0.0342859269,0.0411412327,0.4366393787,0.3129463240,9.6345377514
1520530964676448731,-0.0282113349,0.0328372139,0.0381531789,0.4414496496,0.2745734559,9.6229069105
1520530964681463731,-0.0294677350,0.0351779959,0.0343856547,0.4775266810,0.3189388417,9.6271610690
1520530964686479731,-0.0299745941,0.0343138434,0.0305922763,0.4871472227,0.3345269179,9.6735379853
1520530964691494731,-0.0309877949,0.0290714418,0.0294719441,0.4955651967,0.3561107899,9.6920293051
1520530964696509731,-0.0317426127,0.0293669016,0.0278522920,0.4642984361,0.3884900165,9.7039235040
1520530964701526731,-0.0327488587,0.0305407870,0.0246165005,0.4871472227,0.3908865178,9.6839423220
1520530964706542731,-0.0317473524,0.0302607228,0.0205542221,0.4823369518,0.3585101011,9.7223714649
1520530964711558731,-0.0332572075,0.0308523707,0.0170443719,0.4390445142,0.3609117537,9.7390605236
1520530964716571731,-0.0332625197,0.0311626944,0.0100124017,0.4642984361,0.3141433103,9.7074824349
1520530964721589731,-0.0345239731,0.0320567518,0.0024461195,0.4330316756,0.3057517625,9.7484699901
1520530964726605731,-0.0340308236,0.0291613142,-0.0043406922,0.4270188370,0.2853668436,9.6962519162
1520530964731620731,-0.0350396178,0.0297582581,-0.0097452970,0.4161957276,0.2865668269,9.6603296298
1520530964736636731,-0.0337868128,0.0294782923,-0.0138080422,0.4642984361,0.2721733955,9.7110097936
1520530964741652731,-0.0327845617,0.0286103600,-0.0159809455,0.4390445142,0.2961581708,9.6845029020
1520530964746666731,-0.0322852572,0.0286214834,-0.0200400674,0.4282214047,0.3189426818,9.6195059687
1520530964751683731,-0.0297762677,0.0274649426,-0.0230296318,0.4630958684,0.3213382465,9.6575149338
1520530964756698731,-0.0252540296,0.0277631983,-0.0249296310,0.4667035716,0.3561130378,9.6446623243
1520530964761713731,-0.0242490969,0.0280571619,-0.0257409125,0.4534753267,0.3753003148,9.7098524320
1520530964766729731,-0.0239952459,0.0300976805,-0.0259963635,0.4691087070,0.3848922206,9.7155016313
1520530964771746731,-0.0222331668,0.0306738544,-0.0232897255,0.4715138424,0.4136714035,9.7421794680
1520530964776762731,-0.0222342684,0.0292140181,-0.0222186573,0.4582855976,0.4040793103,9.7713711772
1520530964781777731,-0.0222337431,0.0286268784,-0.0205998281,0.4294239725,0.4112764007,9.7681586506
1520530964786793731,-0.0224838971,0.0297937750,-0.0211315608,0.4330316756,0.4160726814,9.8029831767
1520530964791808731,-0.0219773438,0.0312443386,-0.0186864658,0.4330316756,0.4136744006,9.8122826670
1520530964796823731,-0.0252461182,0.0306639318,-0.0200375740,0.4125880245,0.4220699758,9.8461756423
1520530964801840731,-0.0227340081,0.0306678301,-0.0211244249,0.4005623473,0.3980881039,9.8312082082
1520530964806855731,-0.0239933171,0.0289204875,-0.0216765215,0.4234111339,0.4208699924,9.7833156926
1520530964811872731,-0.0242488382,0.0263001136,-0.0225077003,0.3981572119,0.4076814146,9.7858986494
1520530964816887731,-0.0227462790,0.0230983883,-0.0236171381,0.3909418056,0.3944914319,9.7894681744
1520530964821904731,-0.0230045287,0.0181454813,-0.0239250098,0.4354368110,0.4220681962,9.7413602903
1520530964826919731,-0.0207440781,0.0146380981,-0.0196271530,0.4594881653,0.4280620252,9.7411203425
1520530964831934731,-0.0159650487,0.0163817201,-0.0171877691,0.4366393787,0.4184706813,9.7704056922
1520530964836951731,-0.0142060981,0.0128704979,-0.0115362494,0.4534753267,0.4760281104,9.7399699503
1520530964841966731,-0.0109392682,0.0087741837,-0.0048097926,0.4967677644,0.4964101258,9.7871765916
1520530964846980731,-0.0069145391,0.0072991687,0.0024763636,0.4931600612,0.5072026706,9.7930119025
1520530964851997731,-0.0013863256,0.0037901517,0.0078503366,0.5015780352,0.4952106108,9.7778337891
1520530964857013731,0.0013794473,0.0011520201,0.0140477505,0.4679061393,0.4544424588,9.7665798487
1520530964862028731,0.0061544230,-0.0023594775,0.0202347613,0.4679061393,0.4280613695,9.8037941807
1520530964867043731,0.0081644530,-0.0058698728,0.0256152684,0.4570830299,0.3788974551,9.7760560142
1520530964872060731,0.0106740501,-0.0096627145,0.0277460682,0.4137905922,0.3513205971,9.7776664350
1520530964877076731,0.0141886269,-0.0119909555,0.0271806576,0.3704981545,0.3429299859,9.8222574726
1520530964882091731,0.0161907964,-0.0157679687,0.0233603812,0.3680930191,0.3117525222,9.7979062625
1520530964887108731,0.0156821770,-0.0180897722,0.0198264333,0.3632827482,0.3009606331,9.7782071596
1520530964892123731,0.0199509209,-0.0177843306,0.0152214419,0.3392313940,0.3117547701,9.8016736157
1520530964897137731,0.0234676148,-0.0166072161,0.0114361575,0.3861315348,0.3705089981,9.7895383814
1520530964902154731,0.0232190916,-0.0131041444,0.0090283882,0.3692955868,0.3944931178,9.7641116984
1520530964907170731,0.0254832901,-0.0107699967,0.0082303347,0.3789161285,0.3872975260,9.7175393158
1520530964912185731,0.0279994030,-0.0081450946,0.0077045835,0.3825238317,0.4016869301,9.7128415927
1520530964917201731,0.0277491196,-0.0060996739,0.0055562446,0.3933469411,0.3848981212,9.6941583147
1520530964922216731,0.0277562469,-0.0008547524,0.0055962601,0.3548647743,0.3297406588,9.6945866661
1520530964927232731,0.0290206603,0.0049734304,0.0056383882,0.3560673420,0.3141517397,9.6632122757
1520530964932248731,0.0282729267,0.0108066530,0.0035198829,0.3717007222,0.2709814669,9.6805343655
1520530964937264731,0.0267661961,0.0140222186,-0.0005110512,0.3344211231,0.2529972640,9.6983469217
1520530964942279731,0.0280201930,0.0160798849,-0.0069909247,0.3211928783,0.2613922772,9.7426289622
1520530964947294731,0.0277659970,0.0163820974,-0.0110464234,0.4029674828,0.2685807509,9.7429881462
1520530964952311731,0.0260055017,0.0169714616,-0.0137441691,0.3849289671,0.2865692621,9.7257140227
1520530964957327731,0.0239959030,0.0175534430,-0.0137359891,0.4198034308,0.2457957716,9.7219279017
1520530964962342731,0.0224909719,0.0204703397,-0.0150636874,0.4017649151,0.2877670913,9.7150896870
1520530964967358731,0.0207313979,0.0207639488,-0.0161403809,0.3584724774,0.2913678843,9.7038861214
1520530964972374731,0.0184716491,0.0239763052,-0.0190877313,0.3729032900,0.2937650412,9.7165269056
1520530964977389731,0.0142023015,0.0277706431,-0.0220269017,0.3909418056,0.2577894236,9.6884949550
1520530964982405731,0.0124405321,0.0280715364,-0.0258090541,0.4029674828,0.2517927849,9.7011673346
1520530964987421731,0.0089204118,0.0263203940,-0.0252747667,0.3885366702,0.2302093812,9.7164367148
1520530964992437731,0.0048958082,0.0254534063,-0.0285205191,0.4089803213,0.2218138060,9.7115973384
1520530964997452731,0.0013706737,0.0204992194,-0.0288223234,0.4101828891,0.2541905038,9.7208512128
1520530965002469731,-0.0019028562,0.0149587198,-0.0277763110,0.4390445142,0.3105478559,9.7518932193
1520530965007483731,-0.0056745419,0.0120375702,-0.0256271738,0.4414496496,0.3753012514,9.7390230814
1520530965012498731,-0.0064350875,0.0050345766,-0.0221620311,0.4847420873,0.4100729519,9.7385677885
1520530965017516731,-0.0086976198,0.0018168058,-0.0178535502,0.4847420873,0.4268609179,9.7873614638
1520530965022530731,-0.0122181400,-0.0016891997,-0.0148976882,0.4474624882,0.4712320170,9.8492746846
1520530965027547731,-0.0127191617,-0.0034508155,-0.0100402671,0.4751215456,0.4796238458,9.8315651236
1520530965032563731,-0.0147265689,-0.0043395969,-0.0049028306,0.4823369518,0.4736275817,9.8198793004
1520530965037577731,-0.0172379812,-0.0061020004,-0.0000416757,0.4522727590,0.4856213274,9.8561866960
1520530965042593731,-0.0184946126,-0.0081509255,0.0031916470,0.4378419465,0.4916181535,9.8528348782
1520530965047608731,-0.0189978768,-0.0110758942,0.0072285381,0.4222085662,0.4232683669,9.8274865292
1520530965052625731,-0.0192481249,-0.0122502719,0.0104666632,0.3933469411,0.4076817893,9.8138369246
1520530965057641731,-0.0217615523,-0.0122497996,0.0099302386,0.4186008630,0.4148746649,9.7984762309
1520530965062655731,-0.0200033426,-0.0137096752,0.0112685856,0.3813212639,0.4148775684,9.8116226712
1520530965067673731,-0.0190004760,-0.0142869514,0.0093684513,0.4089803213,0.4064814312,9.7799837535
1520530965072688731,-0.0200073022,-0.0166235205,0.0112463548,0.4306265402,0.3968866220,9.7588638260
1520530965077704731,-0.0169895600,-0.0148733034,0.0109835467,0.4282214047,0.4376575837,9.7693067742
1520530965082719731,-0.0149742454,-0.0125472670,0.0131619648,0.4667035716,0.4196674802,9.7619768887
1520530965087736731,-0.0122053871,-0.0108051611,0.0158756283,0.4570830299,0.4520450209,9.7632011010
1520530965092751731,-0.0074204182,-0.0046907713,0.0183483584,0.4606907330,0.4772266889,9.7724385813
1520530965097766731,-0.0036402017,0.0028852464,0.0189402496,0.4655010038,0.4808237355,9.7747125410
1520530965102783731,-0.0008690107,0.0066685008,0.0211283829,0.4234111339,0.4580433455,9.7972251705
1520530965107798731,0.0039090503,0.0075372407,0.0238316434,0.4474624882,0.4652363149,9.7876869017
1520530965112813731,0.0071793654,0.0095760271,0.0246527752,0.4558804621,0.4352571487,9.8062285031
1520530965117829731,0.0109483657,0.0098718021,0.0235658139,0.4306265402,0.4352591155,9.7971771576
1520530965122845731,0.0147167034,0.0087062840,0.0240910125,0.3921443734,0.3836990744,9.8103855845
1520530965127860731,0.0187405661,0.0116246183,0.0230235922,0.3680930191,0.3813026668,9.7978384408
1520530965132877731,0.0212554087,0.0154245282,0.0189896366,0.3729032900,0.3417306582,9.7618037462
1520530965137892731,0.0230132303,0.0166002251,0.0154781653,0.3608776128,0.3117530842,9.7631121742
1520530965142908731,0.0255240663,0.0163156525,0.0133069078,0.3668904514,0.2961637904,9.7258802438
1520530965147923731,0.0287883597,0.0160328322,0.0105931583,0.4053726182,0.2374029125,9.7244008357
1520530965152940731,0.0302970779,0.0172011464,0.0097876126,0.4089803213,0.2050258401,9.7127758531
1520530965157955731,0.0312976119,0.0145827216,0.0084130085,0.4065751859,0.2038268870,9.6581796667
1520530965162969731,0.0330541476,0.0110795122,0.0110885234,0.4378419465,0.2314046816,9.6857398954
1520530965167986731,0.0317912278,0.0055390717,0.0124013478,0.4691087070,0.2613807570,9.7435135281
1520530965173002731,0.0297723025,-0.0005800626,0.0120878509,0.4606907330,0.3441221019,9.7330554835
1520530965178018731,0.0317738878,-0.0093310088,0.0158050671,0.5027806029,0.3884870194,9.7558454201
1520530965183033731,0.0305122383,-0.0160464570,0.0206260959,0.4691087070,0.4268621354,9.7758921900
1520530965188050731,0.0269901303,-0.0221814790,0.0259968632,0.4835395195,0.4400515562,9.7978196018
1520530965193065731,0.0272377322,-0.0253887957,0.0267835802,0.4354368110,0.4340596005,9.8180500979
1520530965198079731,0.0254733596,-0.0297624381,0.0275651387,0.4510701913,0.4064781532,9.7993305237
1520530965203096731,0.0252192891,-0.0318022282,0.0275500438,0.4342342433,0.3848949368,9.7960290108
1520530965208112731,0.0254673339,-0.0335475232,0.0264540550,0.4125880245,0.3585155333,9.8113732987
1520530965213127731,0.0239540877,-0.0367497016,0.0250796719,0.4618933007,0.3621091145,9.8167006031
1520530965218143731,0.0229466068,-0.0376206068,0.0237221401,0.4642984361,0.3824943144,9.7666851242
1520530965223159731,0.0247067061,-0.0385013555,0.0264176627,0.4618933007,0.3872910634,9.7922710239
1520530965228175731,0.0239468741,-0.0414089403,0.0239619190,0.4691087070,0.4196672929,9.7700884863
1520530965233191731,0.0234380744,-0.0454863353,0.0231200915,0.5280345249,0.4112687206,9.7474423888
1520530965238206731,0.0254512799,-0.0437386973,0.0236707880,0.4787292487,0.4256622457,9.7676647112
1520530965243222731,0.0277141611,-0.0414001791,0.0212494591,0.4354368110,0.4052802303,9.7808895555
1520530965248237731,0.0287277187,-0.0341100731,0.0194093481,0.4715138424,0.4160696843,9.7526364249
1520530965253253731,0.0287340580,-0.0279844422,0.0170211198,0.4582855976,0.3956853274,9.7667307867
1520530965258269731,0.0294868647,-0.0250535476,0.0108193949,0.4414496496,0.3824960940,9.7947989752
1520530965263284731,0.0294889386,-0.0212553507,0.0070606525,0.4546778944,0.4052787317,9.8248637449
1520530965268300731,0.0304955453,-0.0189180532,0.0049122031,0.4630958684,0.3932866719,9.8340906545
1520530965273316731,0.0282391405,-0.0130825076,0.0017143146,0.5196165509,0.3573080572,9.8312513091
1520530965278333731,0.0287433220,-0.0119167726,0.0017222735,0.5593012855,0.3848851961,9.8250274277
1520530965283348731,0.0267329745,-0.0122104016,0.0022648760,0.5713269626,0.3812868383,9.8225895973
1520530965288363731,0.0237197644,-0.0104632759,0.0022838152,0.5460730406,0.3872845072,9.7926138139
1520530965293380731,0.0214610622,-0.0098886773,0.0049979208,0.5641115563,0.4040710683,9.7889354355
1520530965298394731,0.0204636019,-0.0072804505,0.0101601675,0.6278476451,0.3884772788,9.8336538831
1520530965303411731,0.0202165214,-0.0061237521,0.0134160773,0.6098091294,0.4532322665,9.7977398521
1520530965308426731,0.0174547394,-0.0052550521,0.0150511559,0.5713269626,0.4508369828,9.7737117295
1520530965313440731,0.0146959918,-0.0026402302,0.0175112107,0.5340473635,0.4436450437,9.7880273297
1520530965318457731,0.0149566565,0.0023046640,0.0207950871,0.5340473635,0.4748226947,9.8019426544
1520530965323474731,0.0129522484,0.0063818029,0.0213710359,0.4967677644,0.4532410706,9.7848943999
1520530965328489731,0.0099444053,0.0119161990,0.0216894211,0.4739189778,0.4256626204,9.8072244259
1520530965333504731,0.0054218654,0.0136678330,0.0198173394,0.4438547850,0.3968855917,9.8156801241
1520530965338521731,0.0034138544,0.0168788310,0.0174106140,0.4522727590,0.3884909531,9.7935256390
1520530965343536731,0.0024124462,0.0209636480,0.0152792370,0.4703112747,0.4124723567,9.8537581620
1520530965348551731,-0.0006001014,0.0241720670,0.0136860162,0.4811343841,0.3705015989,9.8385858719
1520530965353567731,-0.0058755303,0.0250419677,0.0145141243,0.4835395195,0.3752979733,9.8083420417
1520530965358584731,-0.0086438633,0.0227127222,0.0134192900,0.5039831707,0.3657032577,9.8511517367
1520530965363598731,-0.0126652169,0.0221276494,0.0136928573,0.5075908738,0.3716986789,9.8290300397
1520530965368614731,-0.0134203915,0.0203754047,0.0150336485,0.4943626290,0.4088730622,9.8198253942
1520530965373630731,-0.0171876275,0.0230007592,0.0134373817,0.4787292487,0.4040777181,9.8048743659
1520530965378646731,-0.0219593610,0.0238672147,0.0156172859,0.4691087070,0.4244638546,9.7979752638
1520530965383661731,-0.0222090760,0.0250326544,0.0156266449,0.4895523581,0.4544407730,9.7930984686
1520530965388677731,-0.0227075847,0.0270677785,0.0172664153,0.4931600612,0.4616353345,9.8209477923
1520530965393693731,-0.0234555927,0.0288041354,0.0216098884,0.4967677644,0.4652324748,9.8360170405
1520530965398708731,-0.0277256107,0.0282102230,0.0251304731,0.4642984361,0.4724298462,9.8491096445
1520530965403724731,-0.0269707498,0.0276219219,0.0272889940,0.4727164101,0.4916154373,9.8373875601
1520530965408740731,-0.0284783703,0.0264499656,0.0294472691,0.4546778944,0.4880194210,9.8433773638
1520530965413755731,-0.0274741041,0.0238191575,0.0326719452,0.4402470819,0.4400549279,9.8272945826
1520530965418772731,-0.0267224070,0.0223632587,0.0323888837,0.4715138424,0.4256628077,9.8421121547
1520530965423788731,-0.0282367980,0.0179940853,0.0315467001,0.4414496496,0.4076780429,9.8191794421
1520530965428803731,-0.0284938598,0.0139153319,0.0312454977,0.4198034308,0.3729046565,9.8345319153
1520530965433818731,-0.0272491544,0.0060520841,0.0298304113,0.4486650559,0.3405256172,9.8168504068
1520530965438835731,-0.0257512173,-0.0015247797,0.0303109026,0.4198034308,0.3405278650,9.7811048656
1520530965443851731,-0.0237494947,-0.0082272931,0.0307971296,0.3789161285,0.3405310495,9.7989349968
1520530965448865731,-0.0214947131,-0.0134720569,0.0310234595,0.3789161285,0.3513233133,9.7698708739
1520530965453882731,-0.0169784183,-0.0190080476,0.0315139116,0.4101828891,0.3633122823,9.7463119700
1520530965458897731,-0.0142154994,-0.0216367096,0.0341942288,0.3969546442,0.3777029977,9.7243459584
1520530965463912731,-0.0094466317,-0.0268841310,0.0357686209,0.3897392379,0.3836992618,9.7093024706
1520530965468929731,-0.0041697994,-0.0283440851,0.0376415256,0.3789161285,0.3860983856,9.7686748191
1520530965473945731,-0.0009065253,-0.0321359031,0.0395003794,0.3596750451,0.3729093395,9.7560913793
1520530965478959731,0.0061270271,-0.0338799966,0.0389328808,0.3199903106,0.3681158685,9.7448608839
1520530965483975731,0.0106506726,-0.0327083157,0.0373100967,0.3019517949,0.3645198522,9.7589856953
1520530965488992731,0.0156751986,-0.0332869304,0.0364846784,0.3428390971,0.3345381571,9.7690762524
1520530965494007731,0.0222115714,-0.0286098348,0.0319088328,0.3127749043,0.3489301837,9.7507605435
1520530965499022731,0.0284898277,-0.0283006918,0.0262179239,0.3151800397,0.3117566433,9.7775026938
1520530965504039731,0.0330116306,-0.0265375007,0.0213530353,0.3199903106,0.3105571282,9.8006999220
1520530965509053731,0.0370268763,-0.0276883517,0.0164668493,0.3211928783,0.2757819623,9.7925871201
1520530965514069731,0.0435562942,-0.0294275432,0.0140064629,0.3416365294,0.3033605998,9.7749290801
1520530965519085731,0.0468148716,-0.0326183813,0.0091061154,0.3464468003,0.3249447528,9.8132119622
1520530965524102731,0.0518313490,-0.0381461623,0.0066196293,0.4017649151,0.3645120784,9.8184456612
1520530965529117731,0.0545912806,-0.0413503091,0.0065900414,0.3837263994,0.3956911343,9.8255636979
1520530965534133731,0.0578515673,-0.0457176118,0.0057389900,0.4161957276,0.4304636778,9.8042951594
1520530965539149731,0.0606094289,-0.0512564770,0.0070443469,0.4101828891,0.4508495333,9.7950366543
1520530965544166731,0.0601056394,-0.0535943060,0.0094624087,0.4426522173,0.4784272342,9.7807479955
1520530965549180731,0.0616069637,-0.0588408220,0.0102312306,0.4234111339,0.4652381881,9.7890831468
1520530965554196731,0.0663746435,-0.0649623970,0.0117989534,0.4318291079,0.4988134643,9.8029141974
1520530965559212731,0.0683791809,-0.0699180601,0.0128396107,0.4017649151,0.4760321378,9.7799861621
1520530965564226731,0.0698843315,-0.0728356852,0.0144378549,0.4041700505,0.4220706314,9.7823396602
1520530965569242731,0.0738947276,-0.0812879034,0.0157186474,0.3777135608,0.4124795685,9.7651743669
1520530965574258731,0.0753946484,-0.0859443660,0.0137864564,0.3825238317,0.3920938067,9.7767688649
1520530965579274731,0.0751406680,-0.0871063605,0.0124253013,0.3729032900,0.3872979943,9.8012722058
1520530965584290731,0.0763960253,-0.0853459061,0.0081075718,0.3368262586,0.3825042424,9.7923308832
1520530965589305731,0.0771514233,-0.0821309113,0.0046135290,0.3584724774,0.3765068544,9.7851531752
1520530965594320731,0.0753871487,-0.0826998010,-0.0007985681,0.3356236908,0.3765086339,9.8028077305
1520530965599337731,0.0748852607,-0.0800680675,-0.0042947235,0.3404339617,0.3705125572,9.8225232042
1520530965604353731,0.0751440867,-0.0730681845,-0.0066767492,0.3404339617,0.3693134167,9.8004436384
1520530965609368731,0.0696131446,-0.0718917007,-0.0115274151,0.3440416648,0.4016899272,9.7585397688
1520530965614383731,0.0658447246,-0.0686770213,-0.0155541488,0.4089803213,0.4064814312,9.7544165865
1520530965619400731,0.0633360056,-0.0648870932,-0.0166027650,0.4041700505,0.4268671931,9.7497949521
1520530965624416731,0.0573080054,-0.0610949014,-0.0189975766,0.3692955868,0.4268699092,9.7571072625
1520530965629431731,0.0510217985,-0.0625484580,-0.0211613911,0.4065751859,0.4364601292,9.7927615136
1520530965634446731,0.0477535533,-0.0622525260,-0.0233174678,0.4065751859,0.4484515334,9.8078576916
1520530965639463731,0.0414742111,-0.0581675912,-0.0262506814,0.4390445142,0.4688343918,9.7831167533
1520530965644478731,0.0354380289,-0.0599095201,-0.0294993693,0.4222085662,0.4808271072,9.7867553626
1520530965649495731,0.0286578062,-0.0540742899,-0.0332299486,0.4186008630,0.4856239499,9.7728400729
1520530965654508731,0.0258984510,-0.0488231671,-0.0358902580,0.4618933007,0.4940145611,9.7631133539
1520530965659525731,0.0201192405,-0.0473641383,-0.0374916834,0.5172114155,0.5107982187,9.7637206945
1520530965664540731,0.0138374793,-0.0447346694,-0.0409771042,0.5160088478,0.5191922953,9.8229935558
1520530965669558731,0.0113275294,-0.0415260535,-0.0425712584,0.5412627698,0.5407748561,9.8436452927
1520530965674572731,0.0045491453,-0.0377458120,-0.0406359354,0.5460730406,0.5551641665,9.8679894635
1520530965679587731,-0.0014780670,-0.0348343297,-0.0406025032,0.6386707545,0.5467629717,9.8659342155
1520530965684603731,-0.0072582537,-0.0371771400,-0.0370924566,0.6651272442,0.5731420005,9.8354352360
1520530965689619731,-0.0105211907,-0.0386550102,-0.0297927655,0.6783554890,0.5731409703,9.7806857146
1520530965694634731,-0.0157968940,-0.0418819752,-0.0225026790,0.6687349473,0.5851331238,9.7819298056
1520530965699652731,-0.0175585028,-0.0471428829,-0.0168579637,0.6579118379,0.5911296688,9.7901643121
1520530965704666731,-0.0228345550,-0.0494905953,-0.0114550293,0.6266450774,0.6091192104,9.7672082244
1520530965709682731,-0.0258460990,-0.0486270928,-0.0079256627,0.6278476451,0.5683483423,9.7707227087
1520530965714697731,-0.0280998301,-0.0445566082,-0.0049143341,0.6194296711,0.5323747852,9.7720018682
1520530965719713731,-0.0318599858,-0.0378569694,-0.0045856564,0.5689218272,0.5275821572,9.7887681733
1520530965724729731,-0.0305921421,-0.0299912802,-0.0037163290,0.5665166917,0.5335780467,9.7597321379
1520530965729745731,-0.0305821058,-0.0206582341,-0.0068917411,0.5653141240,0.5143918936,9.7481411128
1520530965734761731,-0.0303235856,-0.0130719399,-0.0106220501,0.5424653375,0.5227876561,9.7262745884
1520530965739777731,-0.0308168526,-0.0049075426,-0.0127232374,0.5845552074,0.4796153227,9.7270691516
1520530965744792731,-0.0298045692,0.0020940926,-0.0156477551,0.6386707545,0.4796111080,9.6765702340
1520530965749807731,-0.0290444236,0.0073422232,-0.0166913234,0.6242399420,0.4952010574,9.6906412207
1520530965754823731,-0.0287898198,0.0117218307,-0.0199049946,0.5881629106,0.4856107439,9.6933260150
1520530965759840731,-0.0272828579,0.0128959723,-0.0228749074,0.5989860200,0.4760167775,9.6839328726
1520530965764854731,-0.0267755087,0.0163927835,-0.0228491638,0.6182271034,0.4832101215,9.7186028943
1520530965769870731,-0.0252585694,0.0213388985,-0.0198381669,0.6386707545,0.5203818824,9.7113947951
1520530965774887731,-0.0252552685,0.0242549291,-0.0206275737,0.6170245357,0.5011973215,9.7151106274
1520530965779902731,-0.0232439957,0.0257162815,-0.0219729215,0.5941757491,0.4904068373,9.7153435475
1520530965784918731,-0.0227420567,0.0257186637,-0.0227854927,0.5929731814,0.4796146671,9.7002579052
1520530965789934731,-0.0224858338,0.0280440109,-0.0206038076,0.6110116971,0.4664227175,9.7419323745
1520530965794948731,-0.0232424589,0.0257111825,-0.0200791003,0.6350630514,0.4832088103,9.7695733575
1520530965799965731,-0.0204833193,0.0219242666,-0.0201131343,0.6182271034,0.4975998066,9.7453181732
1520530965804980731,-0.0199848106,0.0198891425,-0.0217529048,0.6350630514,0.4604251422,9.7196233849
1520530965809996731,-0.0202354940,0.0201797001,-0.0214796691,0.6001885877,0.4820123860,9.6827531769
1520530965815010731,-0.0182276124,0.0178472262,-0.0206895498,0.6074039940,0.4952023687,9.6919672355
1520530965820028731,-0.0204878082,0.0181340825,-0.0193303968,0.6446835931,0.4904029035,9.6974197758
1520530965825044731,-0.0179680023,0.0225029212,-0.0182195341,0.6266450774,0.5203828190,9.6952418303
1520530965830059731,-0.0179611063,0.0233581356,-0.0111786716,0.5953783168,0.5311775180,9.7315621003
1520530965835075731,-0.0154421825,0.0262664096,-0.0087261949,0.5869603429,0.5263816119,9.7467565844
1520530965840091731,-0.0149333436,0.0285874847,-0.0049217011,0.6230373742,0.5683487169,9.6801223005
1520530965845105731,-0.0146778264,0.0297443800,-0.0016667247,0.6350630514,0.5539580953,9.6928028655
1520530965850123731,-0.0116567049,0.0308979879,0.0032063930,0.6254425097,0.5359717382,9.7417240921
1520530965855137731,-0.0098930889,0.0314690628,0.0078068524,0.6170245357,0.5227818491,9.7069545716
1520530965860154731,-0.0048687432,0.0291348567,0.0096735545,0.5917706137,0.5191863947,9.7188253254
1520530965865168731,-0.0046171426,0.0270850654,0.0134451687,0.5965808846,0.4832118074,9.6897599865
1520530965870185731,-0.0028569531,0.0270821124,0.0147946311,0.5424653375,0.4772203200,9.7135354398
1520530965875201731,-0.0005932407,0.0282470798,0.0153404148,0.5580987177,0.4604311365,9.7029403492
1520530965880217731,0.0009123530,0.0267914763,0.0150559531,0.5352499312,0.4232595629,9.7148204343
1520530965885232731,0.0011652788,0.0276642715,0.0156032474,0.5148062801,0.4484431040,9.7289405916
1520530965890247731,0.0029229631,0.0267915355,0.0153227652,0.5196165509,0.4412478868,9.7114686281
1520530965895262731,0.0031712236,0.0235820336,0.0169211199,0.5184139832,0.4916118783,9.6951612056
1520530965900279731,0.0044289488,0.0241638380,0.0174643243,0.4943626290,0.4928128919,9.6860969857
1520530965905295731,0.0051842919,0.0232812387,0.0207028056,0.4438547850,0.4640374554,9.6587252073
1520530965910311731,0.0049316288,0.0221148737,0.0209649259,0.4390445142,0.4424533025,9.6494959240
1520530965915325731,0.0059348874,0.0203655035,0.0214908123,0.4258162693,0.4532465965,9.6821541863
1520530965920342731,0.0089470861,0.0180363371,0.0211968810,0.4366393787,0.4436526302,9.6762474757
1520530965925358731,0.0107058211,0.0159893219,0.0241540572,0.3813212639,0.4292672535,9.6489084855
1520530965930374731,0.0109531603,0.0130755751,0.0241313596,0.4053726182,0.3597152357,9.6371207665
1520530965935389731,0.0114527667,0.0110368087,0.0238443187,0.3320159877,0.3417338426,9.6773652095
1520530965940405731,0.0139596862,0.0075455495,0.0221896991,0.2742927375,0.3429374787,9.7255737850
1520530965945420731,0.0162146091,0.0058126971,0.0167612421,0.2538490864,0.2949734540,9.7211709687
1520530965950437731,0.0184655723,0.0011659994,0.0113105543,0.2069489456,0.2805874217,9.7565058166
1520530965955452731,0.0214714514,0.0000285947,0.0012858632,0.1780873205,0.2614034227,9.7905076220
1520530965960468731,0.0191974597,-0.0028584563,-0.0090129112,0.1708719142,0.2578065634,9.8080135197
1520530965965482731,0.0209448608,-0.0069167544,-0.0166225866,0.1768847527,0.2230310228,9.7952053218
1520530965970499731,0.0234416304,-0.0130086214,-0.0264135909,0.1167563671,0.2338279696,9.8457522406
1520530965975515731,0.0239230775,-0.0243534819,-0.0335354179,0.1432128568,0.2326267687,9.8373608910
1520530965980530731,0.0266680566,-0.0362889664,-0.0374193409,0.1684667787,0.2817895592,9.8347428540
1520530965985546731,0.0309254939,-0.0441415632,-0.0423571246,0.1648590756,0.3033743678,9.8428919287
1520530965990561731,0.0349339573,-0.0528800668,-0.0429723766,0.1672642110,0.3321535507,9.8300568710
1520530965995577731,0.0376811749,-0.0651156771,-0.0436119719,0.2129617841,0.3633276426,9.8900131616
1520530966000593731,0.0434441549,-0.0770579930,-0.0445254907,0.2334054352,0.3897071397,9.8863020184
1520530966005608731,0.0479524402,-0.0892994699,-0.0427334400,0.2574567895,0.4040949516,9.9139453401
1520530966010625731,0.0529668829,-0.1003817678,-0.0384985174,0.2718876021,0.4424663212,9.9067945968
1520530966015638731,0.0579792596,-0.1123353054,-0.0353524476,0.2706850343,0.4772414871,9.9067723910
1520530966020657731,0.0645014521,-0.1231241711,-0.0316591941,0.2779004406,0.4904314698,9.8973921463
1520530966025671731,0.0675099068,-0.1298313897,-0.0292810126,0.2995466595,0.5264039966,9.9087678147
1520530966030688731,0.0755522965,-0.1324652685,-0.0239050376,0.3416365294,0.5264007185,9.8711695312
1520530966035703731,0.0805797158,-0.1348096726,-0.0182506930,0.3368262586,0.5000200039,9.8363777582
1520530966040719731,0.0866169486,-0.1342420230,-0.0117643466,0.3560673420,0.5156073308,9.8419859957
1520530966045734731,0.0876286440,-0.1336777993,-0.0047275741,0.3079646335,0.5264033410,9.8261736585
1520530966050750731,0.0934171341,-0.1296063495,-0.0009195430,0.2911286855,0.5551840224,9.7984180103
1520530966055766731,0.0969406416,-0.1255248593,-0.0011654998,0.2766978729,0.5072195294,9.7509573424
1520530966060781731,0.1007224381,-0.1182467820,0.0018590813,0.2670773312,0.4460641171,9.7697049224
1520530966065796731,0.1055074030,-0.1135958707,0.0067556091,0.2442285447,0.3933037180,9.7885730727
1520530966070814731,0.1085321823,-0.1074785279,0.0078788768,0.2261900290,0.3609283315,9.8189959635
1520530966075829731,0.1110503691,-0.1010554288,0.0035943831,0.1756821850,0.2997761036,9.8346550836
1520530966080845731,0.1120614685,-0.0934644687,-0.0017606015,0.1420102891,0.2817916197,9.8489460927
1520530966085860731,0.1150805829,-0.0876210280,-0.0071326584,0.1552385339,0.2650026235,9.8592930034
1520530966090876731,0.1140797981,-0.0803185979,-0.0138388618,0.1660616433,0.2602052189,9.9138131011
1520530966095891731,0.1130779587,-0.0733053670,-0.0213589259,0.1708719142,0.2398194571,9.9254075992
1520530966100908731,0.1143388202,-0.0657092094,-0.0286081985,0.1323897474,0.2638052627,9.9292452061
1520530966105923731,0.1128355240,-0.0589926589,-0.0342357310,0.1335923151,0.2494154839,9.8932210705
1520530966110939731,0.1080687341,-0.0484835621,-0.0419926632,0.1456179922,0.2817913387,9.9302610543
1520530966115953731,0.1070718619,-0.0394379238,-0.0467917068,0.1480231276,0.2949816961,9.8988468947
1520530966120971731,0.1055709845,-0.0312659076,-0.0518670321,0.1396051536,0.3117703176,9.9616682329
1520530966125985731,0.1033160304,-0.0248497782,-0.0542488367,0.2081515133,0.3513366130,9.9551517367
1520530966131001731,0.0967854324,-0.0210577833,-0.0566427149,0.2382157061,0.3789145012,9.9606429353
1520530966136017731,0.0932721729,-0.0187339129,-0.0544540289,0.2502413832,0.4280783220,10.0069636999
1520530966141033731,0.0882449182,-0.0204878314,-0.0531053035,0.2646721958,0.4448651640,10.0219147399
1520530966146047731,0.0829706733,-0.0202072556,-0.0498467285,0.2550516541,0.4784418451,10.0661371091
1520530966151064731,0.0784485175,-0.0225546726,-0.0444451942,0.3175851752,0.5168094684,10.0945446262
1520530966156080731,0.0726702125,-0.0272453130,-0.0347303767,0.2730901698,0.5671768316,10.1681436702
1520530966161096731,0.0678991219,-0.0322349569,-0.0220436443,0.2959389563,0.5887595796,10.2155481281
1520530966166110731,0.0601176320,-0.0351941033,-0.0063597447,0.3007492272,0.5887592050,10.2096905881
1520530966171131731,0.0535902605,-0.0399010646,0.0093084827,0.2983440917,0.6259327455,10.2120020366
1520530966176144731,0.0480618391,-0.0483919888,0.0235932136,0.3741058577,0.5803595088,10.2275790683
1520530966181158731,0.0410277731,-0.0580614251,0.0424711327,0.3248005814,0.5815624893,10.3024350194
1520530966186175731,0.0352506011,-0.0659755061,0.0589251437,0.2730901698,0.6019519038,10.3157020415
1520530966191190731,0.0309793756,-0.0747609647,0.0745580474,0.2310002998,0.6019551819,10.3172738624
1520530966196205731,0.0224318085,-0.0844120525,0.0864045736,0.2297977321,0.5791716076,10.3393885201
1520530966201222731,0.0143903204,-0.0893913214,0.0947686391,0.1768847527,0.5935654137,10.3898617005
1520530966206238731,0.0093635832,-0.0946593365,0.1025837890,0.1444154245,0.5911696616,10.3878557878
1520530966211252731,0.0033282282,-0.0990382948,0.1047260112,0.1239717734,0.5731841475,10.4031801853
1520530966216267731,-0.0024542010,-0.1025444579,0.1074155278,0.0722613617,0.5396122430,10.4827420331
1520530966221284731,-0.0102417871,-0.1028490926,0.1112154157,0.0409946012,0.5552035037,10.5062740422
1520530966226300731,-0.0137455906,-0.0947026307,0.1153423846,-0.0263491907,0.5456156253,10.4860202889
1520530966231316731,-0.0185134508,-0.0903366472,0.1164667822,-0.1093263629,0.5588126325,10.5042472344
1520530966236331731,-0.0247879552,-0.0833407809,0.1146379831,-0.1393905558,0.5504209910,10.5254666373
1520530966241347731,-0.0298086941,-0.0786769554,0.1133301574,-0.1249597432,0.5384284628,10.5230135822
1520530966246362731,-0.0355842978,-0.0748883073,0.1122876086,-0.1502136652,0.5132484808,10.5581482631
1520530966251379731,-0.0416161205,-0.0719615279,0.1066395770,-0.1911009674,0.5048576823,10.5655272841
1520530966256394731,-0.0456434096,-0.0754538901,0.1044560004,-0.2103420508,0.4449021597,10.6157452220
1520530966261410731,-0.0504236190,-0.0751447086,0.0971623520,-0.2512293531,0.4161259740,10.5975769548
1520530966266424731,-0.0584715052,-0.0754195760,0.0898703249,-0.2307857020,0.4437046115,10.5868917784
1520530966271442731,-0.0642595915,-0.0762726843,0.0812169216,-0.2440139468,0.5036626629,10.5439627408
1520530966276457731,-0.0690372879,-0.0721667628,0.0707056226,-0.2680653011,0.5276473446,10.5406870233
1520530966281473731,-0.0735580166,-0.0663233621,0.0642653838,-0.2680653011,0.5336430467,10.5278975931
1520530966286489731,-0.0785824838,-0.0601836747,0.0559344803,-0.2849012490,0.5504323239,10.5489636843
1520530966291504731,-0.0856206857,-0.0566679642,0.0478578487,-0.2812935459,0.5840079747,10.5210043727
1520530966296519731,-0.0893919166,-0.0537366566,0.0408528871,-0.2656601656,0.6259766720,10.4940819692
1520530966301536731,-0.0954182428,-0.0479011309,0.0371209076,-0.3053449002,0.6511617116,10.5560373095
1520530966306551731,-0.1031988741,-0.0417894786,0.0388053362,-0.2536344885,0.6631490885,10.5706301701
1520530966311567731,-0.1082247566,-0.0394501734,0.0350448128,-0.2764832750,0.6919302382,10.5661759262
1520530966316582731,-0.1112352381,-0.0353705147,0.0345404449,-0.2668627333,0.7147131570,10.6148701144
1520530966321598731,-0.1152485001,-0.0312992624,0.0370139487,-0.2127471863,0.7302977678,10.5945717382
1520530966326614731,-0.1255465654,-0.0292716202,0.0400246508,-0.2380011082,0.7338971559,10.5971383243
1520530966331629731,-0.1333366095,-0.0292754007,0.0403096652,-0.2343934051,0.7374942962,10.6482340351
1520530966336646731,-0.1378582360,-0.0307464789,0.0449062310,-0.2031266446,0.6919245249,10.6305419792
1520530966341661731,-0.1471616206,-0.0362937121,0.0475867201,-0.1862906966,0.6559490010,10.5909002941
1520530966346676731,-0.1559602512,-0.0400917128,0.0500090684,-0.2115446185,0.6295698785,10.5632803709
1520530966351693731,-0.1670192541,-0.0438949701,0.0540588925,-0.2452165145,0.5600223565,10.5567030704
1520530966356709731,-0.1770775466,-0.0500245393,0.0564657897,-0.3366116607,0.5036698747,10.5460261741
1520530966361724731,-0.1851236411,-0.0535250326,0.0567245937,-0.3678784212,0.4245290419,10.5347862424
1520530966366739731,-0.1959352537,-0.0576079212,0.0564429937,-0.4087657235,0.3921554349,10.4852435965
1520530966371755731,-0.2069913437,-0.0558595755,0.0548535927,-0.4749069477,0.4005545692,10.5021492045
1520530966376771731,-0.2160411791,-0.0573164003,0.0535065498,-0.4833249217,0.3561870292,10.4441672078
1520530966381785731,-0.2228277411,-0.0576068010,0.0521641988,-0.5013634374,0.3453961702,10.4060025572
1520530966386802731,-0.2321269426,-0.0587774388,0.0527136670,-0.5482635782,0.3178195932,10.3692973427
1520530966391818731,-0.2389155707,-0.0599390794,0.0502824631,-0.5626943907,0.2818465045,10.3369328528
1520530966396833731,-0.2479665939,-0.0622700578,0.0489287510,-0.5386430365,0.2746497887,10.2844092898
1520530966401850731,-0.2580272112,-0.0675138185,0.0470135831,-0.5723149324,0.2818472537,10.2963514549
1520530966406865731,-0.2685889677,-0.0692502353,0.0410678373,-0.5879483127,0.2878441734,10.2720927509
1520530966411881731,-0.2753720955,-0.0660396511,0.0381288879,-0.5650995262,0.2650587259,10.2974597392
1520530966416896731,-0.2821625309,-0.0698295798,0.0378420434,-0.5602892553,0.1991056279,10.2498293305
1520530966421912731,-0.2929721167,-0.0712849086,0.0356866299,-0.5687072293,0.1823183176,10.2301711894
1520530966426929731,-0.3002537532,-0.0660392002,0.0343874510,-0.6035816930,0.1883167359,10.1956404708
1520530966431944731,-0.3057796458,-0.0648794702,0.0357593407,-0.6360510212,0.1667347371,10.2006261312
1520530966436959731,-0.3135655579,-0.0631407711,0.0382220607,-0.6552921046,0.1667362356,10.1996512682
1520530966441975731,-0.3231072176,-0.0587795719,0.0404375096,-0.6661152140,0.1415551297,10.2137268972
1520530966446990731,-0.3301365516,-0.0558786814,0.0442604513,-0.6396587244,0.0839943288,10.2286333857
1520530966452007731,-0.3359129081,-0.0544291223,0.0461761226,-0.6348484535,0.0791973925,10.2529962659
1520530966457023731,-0.3429410542,-0.0506540782,0.0500057335,-0.6408612921,0.0504184906,10.1903270818
1520530966462038731,-0.3497255542,-0.0515367176,0.0521760329,-0.6324433181,0.0240367457,10.1960815916
1520530966467053731,-0.3542502543,-0.0529975977,0.0529849562,-0.6180125055,0.0204382005,10.1448103049
1520530966472068731,-0.3590281938,-0.0576718188,0.0567458971,-0.6288356149,0.0420235711,10.1367595947
1520530966477084731,-0.3582840200,-0.0646640237,0.0564205970,-0.6601023755,0.0180431978,10.1661409118
1520530966482101731,-0.3585435478,-0.0713688800,0.0574521164,-0.6384561566,0.0336303374,10.1531314359
1520530966487117731,-0.3598045778,-0.0763301935,0.0601221165,-0.5987714221,0.0312289658,10.1469367879
1520530966492132731,-0.3575446526,-0.0792504370,0.0628011441,-0.5771252033,0.0072444714,10.1362901881
1520530966497147731,-0.3547750102,-0.0798525191,0.0703668491,-0.6023791253,-0.0215329319,10.0935647321
1520530966502164731,-0.3522605832,-0.0836613864,0.0784496586,-0.5831380418,-0.0143395879,10.1038297308
1520530966507179731,-0.3487406119,-0.0883491124,0.0884177532,-0.5470610105,-0.0479183296,10.0698091459
1520530966512195731,-0.3424536680,-0.0904103809,0.0973185381,-0.5097814114,-0.0623109181,10.0868924805
1520530966517211731,-0.3379271802,-0.0936386052,0.1064842436,-0.5218070885,-0.0563142794,10.0846793965
1520530966522226731,-0.3303883213,-0.1003673613,0.1175114927,-0.5157942499,-0.1198691901,10.0474942396
1520530966527242731,-0.3236038802,-0.1050457946,0.1244975151,-0.4977557342,-0.1690353524,10.0671230539
1520530966532257731,-0.3135520721,-0.1100172463,0.1325574306,-0.5013634374,-0.1714333522,10.0334583331
1520530966537274731,-0.3052606692,-0.1135215381,0.1365735402,-0.5145916822,-0.1474495135,10.0835358920
1520530966542289731,-0.2977241271,-0.1164375287,0.1384311289,-0.5554789844,-0.1774248397,10.0979088248
1520530966547304731,-0.2874217964,-0.1161377369,0.1367909409,-0.5735175001,-0.2205924900,10.1527472627
1520530966552321731,-0.2801345185,-0.1134993092,0.1319275876,-0.5338327656,-0.2373835467,10.1651609501
1520530966557337731,-0.2725920213,-0.1061906178,0.1241233320,-0.5290224948,-0.2613667298,10.2569468891
1520530966562352731,-0.2647963827,-0.0994733383,0.1195607144,-0.5145916822,-0.2925455047,10.2893768619
1520530966567368731,-0.2587598358,-0.0927567479,0.1150013637,-0.4640838383,-0.3081382640,10.3133054740
1520530966572383731,-0.2524804348,-0.0912806099,0.1087782555,-0.4424376194,-0.2565769116,10.3467466761
1520530966577399731,-0.2472048647,-0.0886385993,0.1022953605,-0.3847143692,-0.2218063350,10.3054758841
1520530966582415731,-0.2414209419,-0.0848446938,0.1009607965,-0.2716730042,-0.1978323306,10.3159736616
1520530966587430731,-0.2381525634,-0.0845556715,0.1023096817,-0.1959112383,-0.1966390908,10.3210457935
1520530966592446731,-0.2381505013,-0.0851479102,0.1058223322,-0.1694547486,-0.2134291172,10.3463718200
1520530966597461731,-0.2341272580,-0.0839837105,0.1069059405,-0.1574290715,-0.2362137219,10.3869520252
1520530966602478731,-0.2323647790,-0.0816526735,0.1071910040,-0.1345802849,-0.2158301142,10.3274404087
1520530966607494731,-0.2293447041,-0.0778613079,0.1064026658,-0.1490110975,-0.2410109392,10.3729290397
1520530966612508731,-0.2295915964,-0.0720220609,0.1021188599,-0.1622393423,-0.2553995940,10.3846932670
1520530966617525731,-0.2320996920,-0.0650145197,0.0964954174,-0.1610367746,-0.2841790578,10.3544938833
1520530966622541731,-0.2298209683,-0.0495571419,0.0917392142,-0.1718598840,-0.2997670404,10.3197501115
1520530966627555731,-0.2285506899,-0.0343820729,0.0834655583,-0.1610367746,-0.3021661642,10.3312685443
1520530966632572731,-0.2292831887,-0.0127936897,0.0738918145,-0.1766701549,-0.3009658062,10.3070145176
1520530966637588731,-0.2277594906,0.0073503118,0.0599740205,-0.1778727226,-0.2625932190,10.3151238115
1520530966642603731,-0.2252293661,0.0280760194,0.0465998975,-0.1309725818,-0.2637960121,10.3053713320
1520530966647618731,-0.2237001244,0.0522994043,0.0327132267,-0.0732493316,-0.3117661247,10.3188019903
1520530966652635731,-0.2226802118,0.0715690553,0.0187896968,-0.0852750087,-0.3261548732,10.2643123071
1520530966657650731,-0.2186408359,0.0958028944,0.0013812621,-0.0299568939,-0.3057737944,10.3032668902
1520530966662665731,-0.2161111035,0.1177006959,-0.0144188816,-0.0107158105,-0.2841907653,10.2949235535
1520530966667682731,-0.2148464352,0.1366994570,-0.0359203864,-0.0215389199,-0.2793933607,10.3310506842
1520530966672698731,-0.2133251951,0.1571443126,-0.0533530540,0.0674510909,-0.2949891170,10.3069568324
1520530966677713731,-0.2128101147,0.1781773710,-0.0729437757,0.1131486640,-0.3633436802,10.2856601014
1520530966682729731,-0.2092831454,0.1960041957,-0.0917529143,0.1396051536,-0.3501551961,10.2296068176
1520530966687744731,-0.2080227974,0.2085779285,-0.1078924090,0.2273925967,-0.3297766461,10.2403539093
1520530966692760731,-0.2080218015,0.2196971601,-0.1251228691,0.2658747635,-0.3321779240,10.1783880566
1520530966697775731,-0.2075243670,0.2264465492,-0.1426581548,0.3632827482,-0.3933416721,10.1426352647
1520530966702791731,-0.2077805310,0.2296822746,-0.1539961618,0.4222085662,-0.4233247720,10.1537123899
1520530966707808731,-0.2067839880,0.2288332815,-0.1632032584,0.4210059985,-0.4365152230,10.1165483512
1520530966712823731,-0.2062962957,0.2212727778,-0.1689434559,0.5208191186,-0.3969513628,10.0748632049
1520530966717839731,-0.2068141085,0.2128348129,-0.1736062721,0.5821500720,-0.3441939608,10.1021062510
1520530966722855731,-0.2088311442,0.2072948055,-0.1725625934,0.6458861608,-0.2470685505,10.0746618556
1520530966727871731,-0.2118496431,0.2017420210,-0.1669177675,0.6374681868,-0.1655263461,10.1013935869
1520530966732885731,-0.2146133265,0.1976411585,-0.1593684717,0.6302527805,-0.1187593076,10.1165260844
1520530966737901731,-0.2201389644,0.1955803616,-0.1523395720,0.7048119787,-0.0672020764,10.1471279761
1520530966742918731,-0.2274142459,0.1964145100,-0.1385215271,0.7709532029,-0.0875926148,10.2080977063
1520530966747932731,-0.2354507747,0.1905406914,-0.1225888458,0.8022199635,-0.1091795776,10.2252465822
1520530966752949731,-0.2432384275,0.1817480270,-0.1047850408,0.8334867240,-0.1235716979,10.2075241235
1520530966757965731,-0.2512765911,0.1720745547,-0.0845525253,0.9020330837,-0.1367675811,10.2103562299
1520530966762980731,-0.2618349605,0.1562773806,-0.0630092979,0.9633640370,-0.2171147662,10.1505682761
1520530966767996731,-0.2723983833,0.1390334820,-0.0452648284,0.9609589016,-0.2902621447,10.1378794324
1520530966773012731,-0.2837181215,0.1203338221,-0.0280711660,0.9429203859,-0.3250358121,10.0950895928
1520530966778028731,-0.2917711474,0.1028068078,-0.0130390458,0.8851971357,-0.4173651290,10.0225264055
1520530966783043731,-0.3028425662,0.0864587187,-0.0034033505,0.8214610469,-0.4845120287,9.9662672027
1520530966788058731,-0.3106435288,0.0756613273,0.0013986899,0.7986122603,-0.6020260107,9.9375505952
1520530966793075731,-0.3227146739,0.0683683461,0.0027182450,0.7420915778,-0.6643769107,9.9428101143
1520530966798090731,-0.3310188417,0.0602070587,0.0024008546,0.6987991402,-0.6871572070,9.8979300996
1520530966803105731,-0.3347902648,0.0569923393,0.0053594063,0.6951914370,-0.6787629430,9.9002813173
1520530966808122731,-0.3408280347,0.0526213938,0.0045256237,0.7060145464,-0.7207337008,9.8711632998
1520530966813137731,-0.3481170651,0.0514522720,0.0048008122,0.7709532029,-0.6859636861,9.8437680049
1520530966818153731,-0.3506250862,0.0534836949,0.0075265000,0.7432941455,-0.6619787235,9.8091495158
1520530966823168731,-0.3503735679,0.0534830649,0.0077965792,0.7444967133,-0.6763685022,9.7928818275
1520530966828184731,-0.3521315580,0.0549422121,0.0067287781,0.8010173958,-0.6835677468,9.7109886291
1520530966833200731,-0.3526297178,0.0560980837,0.0102557005,0.7685480675,-0.6835652180,9.7543039919
1520530966838215731,-0.3473540262,0.0549346131,0.0102370070,0.7541172550,-0.6847632345,9.7544456219
1520530966843231731,-0.3418236917,0.0563944302,0.0099673086,0.7252556298,-0.6787652845,9.7175320900
1520530966848246731,-0.3345317053,0.0628223136,0.0045917636,0.6651272442,-0.7351202014,9.7472259007
1520530966853264731,-0.3247241314,0.0724622389,-0.0029283619,0.6110116971,-0.7686919186,9.7198939148
1520530966858278731,-0.3181791691,0.0873552753,-0.0139195010,0.5508833115,-0.8130554312,9.7402788804
1520530966863293731,-0.3061011827,0.1077969818,-0.0286663121,0.5713269626,-0.8502303766,9.7796290384
1520530966868310731,-0.2952818899,0.1267820018,-0.0436924508,0.5148062801,-0.8394337108,9.8034115311
1520530966873326731,-0.2819561559,0.1440335394,-0.0638769673,0.5208191186,-0.8166505110,9.8033307884
1520530966878342731,-0.2676198673,0.1621457841,-0.0789163094,0.6338604837,-0.7471091705,9.7975141156
1520530966883356731,-0.2510229909,0.1787990787,-0.0928887838,0.7144325204,-0.6727687395,9.7989816657
1520530966888372731,-0.2391969739,0.1948524365,-0.1011753729,0.7396864424,-0.5636489278,9.8125751770
1520530966893388731,-0.2273781351,0.2030267571,-0.1051932510,0.7541172550,-0.5132861539,9.7914670129
1520530966898403731,-0.2130471509,0.2079851776,-0.1049115158,0.7974096926,-0.4988998406,9.7852208791
1520530966903420731,-0.2012325894,0.2094416286,-0.1030285151,0.8298790209,-0.4809152631,9.8522916518
1520530966908436731,-0.1909347084,0.2041949164,-0.1009232992,0.8888048388,-0.4845172737,9.8424244604
1520530966913450731,-0.1818956149,0.1951502434,-0.0953275530,0.9549460630,-0.5264923398,9.8859830795
1520530966918466731,-0.1708363691,0.1913425383,-0.0864489744,0.9561486307,-0.5636657866,9.8941426316
1520530966923483731,-0.1620403103,0.1857827263,-0.0764973502,0.9104510576,-0.6032338615,9.9445982020
1520530966928499731,-0.1544924814,0.1837073814,-0.0621879810,0.9080459222,-0.6272164826,9.9818336054
1520530966933514731,-0.1474502807,0.1813491963,-0.0511264522,0.8322841563,-0.6679813564,9.9872593573
1520530966938529731,-0.1446866640,0.1769620291,-0.0446718309,0.8238661823,-0.6895652284,9.9885244848
1520530966943545731,-0.1426700360,0.1778202164,-0.0384463399,0.8322841563,-0.7399297818,10.0303288440
1520530966948561731,-0.1383898760,0.1780877796,-0.0289829447,0.8346892917,-0.8430560456,10.0710810354
1520530966953577731,-0.1358738572,0.1783714075,-0.0257388381,0.6903811662,-0.9185906531,10.0946400457
1520530966958593731,-0.1333736220,0.1710972484,-0.0293161791,0.6049988586,-0.9269779862,10.1501000559
1520530966963607731,-0.1316277185,0.1652877294,-0.0358570094,0.6218348065,-0.9173861740,10.1406296788
1520530966968624731,-0.1323884639,0.1656028568,-0.0447814007,0.5629089886,-0.9461609548,10.2144463598
1520530966973640731,-0.1321384744,0.1685342829,-0.0512527381,0.5448704729,-0.9737397797,10.2460267172
1520530966978655731,-0.1336461223,0.1735090820,-0.0593285222,0.4703112747,-0.9149760920,10.1978850870
1520530966983671731,-0.1344068207,0.1749948466,-0.0701378424,0.4703112747,-0.8849975814,10.1676401107
1520530966988687731,-0.1376756303,0.1776342382,-0.0768754146,0.5400602021,-0.8430330989,10.1611095708
1520530966993702731,-0.1399407854,0.1788156441,-0.0830848774,0.6049988586,-0.8070639438,10.0802544848
1520530966998718731,-0.1409449222,0.1805679280,-0.0846929474,0.5232242541,-0.7722825027,10.0786922298
1520530967003734731,-0.1454761733,0.1759091024,-0.0866139370,0.5075908738,-0.7147225448,10.0985447145
1520530967008749731,-0.1500088711,0.1721331715,-0.0917748081,0.5063883061,-0.7015319064,10.0741385338
1520530967013764731,-0.1555446549,0.1689352453,-0.0953060908,0.5496807438,-0.7159249633,10.0574611685
1520530967018782731,-0.1600694373,0.1695235265,-0.0979987025,0.6134168325,-0.7267221911,10.1033370827
1520530967023797731,-0.1681176842,0.1657374761,-0.0999064888,0.5508833115,-0.7483018484,10.1062910817
1520530967028813731,-0.1766716493,0.1607907896,-0.1037160552,0.5015780352,-0.7806747997,10.0556682271
1520530967033828731,-0.1827069494,0.1605094255,-0.1083063571,0.4246137016,-0.7986559119,10.0320298678
1520530967038844731,-0.1890000091,0.1579078132,-0.1169721655,0.3524596388,-0.8598064539,10.1153040282
1520530967043860731,-0.1960381679,0.1611306823,-0.1245099284,0.3067620657,-0.9125650734,10.0960438241
1520530967048875731,-0.2043291670,0.1678533156,-0.1333714101,0.3091672012,-0.9293532267,10.0913882089
1520530967053891731,-0.2103524040,0.1795325573,-0.1430109376,0.2718876021,-0.9137614977,10.0905737203
1520530967058906731,-0.2158700559,0.1917874806,-0.1499414934,0.2827107115,-0.8765889875,10.0857835495
1520530967063921731,-0.2226481145,0.2022987035,-0.1587768754,0.3488519357,-0.8286285219,10.0909037176
1520530967068938731,-0.2296725519,0.2136715982,-0.1630058411,0.3704981545,-0.8142405227,10.0685982593
1520530967073954731,-0.2389649710,0.2200886130,-0.1667273070,0.3861315348,-0.8106443190,10.0637940098
1520530967078969731,-0.2444897071,0.2268057735,-0.1731590096,0.3993597796,-0.8190393322,10.0322955528
1520530967083984731,-0.2505180171,0.2297208980,-0.1744783069,0.3440416648,-0.8094419005,10.0270139109
1520530967089001731,-0.2578086666,0.2306060365,-0.1795984747,0.2923312532,-0.8598017709,10.0229177647
1520530967094015731,-0.2683706348,0.2317973052,-0.1906623617,0.2622670604,-0.9209555910,10.0674314977
1520530967099032731,-0.2766710820,0.2356243040,-0.2063097217,0.2526465187,-0.9725178799,10.0780347153
1520530967104047731,-0.2842164881,0.2406185932,-0.2224906813,0.1359974505,-1.0600460458,10.0746068918
1520530967109063731,-0.2965430327,0.2432908619,-0.2427387463,0.0073227052,-1.1259887474,10.1107879651
1520530967114079731,-0.3061074425,0.2456786566,-0.2651585355,-0.0443877064,-1.1319804222,10.1008378336
1520530967119096731,-0.3159250407,0.2474872259,-0.2889350336,-0.0696416284,-1.1907363361,10.0813844902
1520530967124111731,-0.3244822323,0.2510394957,-0.3108067056,-0.0985032535,-1.2375005647,10.0224416741
1520530967129127731,-0.3330415330,0.2540133670,-0.3343060991,-0.1670496132,-1.2338978049,9.9591874368
1520530967134142731,-0.3408459297,0.2561060957,-0.3551081030,-0.1646444777,-1.2183091667,9.9080144913
1520530967139161731,-0.3509126353,0.2564438038,-0.3737548778,-0.1658470455,-1.2566815666,9.8464699857
1520530967144174731,-0.3567072216,0.2550268657,-0.3894469206,-0.1850881289,-1.2626757701,9.8071502188
1520530967149189731,-0.3612396919,0.2541771634,-0.3991848411,-0.1562265037,-1.2075175585,9.7022225520
1520530967154204731,-0.3670301971,0.2518685894,-0.4083904516,-0.1502136652,-1.1727429545,9.6393743423
1520530967159221731,-0.3755850796,0.2486811366,-0.4162448679,-0.2163548894,-1.1295687480,9.5795445386
1520530967164235731,-0.3778522184,0.2469421414,-0.4200416484,-0.2007215091,-1.1103837188,9.5131314580
1520530967169252731,-0.3838900236,0.2457909942,-0.4262618950,-0.1466059620,-1.1403664440,9.3847981290
1520530967174267731,-0.3876646457,0.2449284756,-0.4311313896,-0.1454033943,-1.1967261376,9.3674092236
1520530967179283731,-0.3909357920,0.2440632401,-0.4349196340,-0.1478085298,-1.2470898481,9.3872381932
1520530967184299731,-0.3947133543,0.2437958738,-0.4443839626,-0.1309725818,-1.2710739678,9.3324769433
1520530967189315731,-0.3992491256,0.2400301410,-0.4533324762,-0.1478085298,-1.3502159245,9.3071508235
1520530967194330731,-0.4012788988,0.2330689041,-0.4655566618,-0.1009083890,-1.4125748792,9.3067551320
1520530967199346731,-0.4010518162,0.2246611003,-0.4813132599,-0.0347671647,-1.4245714348,9.2491779935
1520530967204362731,-0.4030858979,0.2156652707,-0.4954468284,-0.0227414876,-1.4581483032,9.2212022295
1520530967209377731,-0.3995988384,0.2020130969,-0.5109789636,0.0518177106,-1.4557558293,9.1670155555
1520530967214392731,-0.3973707390,0.1857343278,-0.5251760435,0.0842870388,-1.4137884433,9.1840907514
1520530967219409731,-0.3901133267,0.1691537601,-0.5347854007,0.0794767680,-1.3070645710,9.2061142355
1520530967224426731,-0.3841055479,0.1566477128,-0.5427380257,0.0145381115,-1.2530981943,9.1997208246
1520530967229440731,-0.3753221755,0.1523007869,-0.5503629924,-0.0371723002,-1.2650855711,9.2211544266
1520530967234456731,-0.3622599916,0.1529090718,-0.5579581009,-0.1093263629,-1.2770713558,9.2137334157
1520530967239472731,-0.3486843898,0.1605064116,-0.5638775134,-0.1273648786,-1.2578837041,9.2592138963
1520530967244486731,-0.3381269221,0.1675256283,-0.5719601386,-0.1237571755,-1.2590831255,9.2766121098
1520530967249503731,-0.3227874730,0.1800837501,-0.5802799389,-0.1249597432,-1.2722735765,9.2208537678
1520530967254520731,-0.3036776632,0.1926404350,-0.5875245563,-0.0660339253,-1.2518927786,9.1447209842
1520530967259535731,-0.2895937438,0.2046094681,-0.5936821020,-0.0576159513,-1.2087243790,9.0585983000
1520530967264549731,-0.2719891788,0.2177425039,-0.5987551058,-0.0516031127,-1.2542921834,9.0155848833
1520530967269566731,-0.2541397797,0.2270920099,-0.6054807518,-0.0648313576,-1.2926636467,8.8925637986
1520530967274582731,-0.2350378853,0.2352844828,-0.6151936286,-0.1610367746,-1.3286303666,8.8726166922
1520530967279598731,-0.2192060825,0.2429009194,-0.6278808891,-0.1369854203,-1.3490176270,8.7957009688
1520530967284613731,-0.2023605105,0.2548797767,-0.6372901194,-0.0504005450,-1.3058553153,8.7773839492
1520530967289629731,-0.1837557996,0.2680299602,-0.6485875457,-0.0299568939,-1.2734801161,8.7109111857
1520530967294643731,-0.1674165614,0.2785575253,-0.6601713252,0.0145381115,-1.2722844411,8.6558561634
1520530967299661731,-0.1518327604,0.2876264156,-0.6712237281,0.0458048720,-1.2902739826,8.6137321897
1520530967304676731,-0.1329787775,0.2981491378,-0.6806478076,0.0999204191,-1.2602996867,8.5387990156
1520530967309692731,-0.1131286595,0.3031410469,-0.6920098139,0.1720744819,-1.2686992892,8.5160241625
1520530967314706731,-0.0960513554,0.3049404833,-0.7085315123,0.1756821850,-1.2686995702,8.5171511913
1520530967319723731,-0.0794739713,0.3064381403,-0.7212668577,0.1203640702,-1.2579029981,8.5095440921
1520530967324738731,-0.0601318610,0.3079354234,-0.7334662453,0.0951101483,-1.1775586228,8.4922793933
1520530967329754731,-0.0428030856,0.3085635927,-0.7478329355,0.0890973097,-1.1080080100,8.5108644001
1520530967334770731,-0.0274704541,0.3167538604,-0.7572682656,0.0963127160,-1.0456532699,8.4805176214
1520530967339786731,-0.0131277165,0.3327958194,-0.7609602416,0.1636565079,-0.9605195448,8.4576983800
1520530967344800731,0.0032331976,0.3540813022,-0.7638042983,0.1973284039,-0.8801797589,8.3864015115
1520530967349818731,0.0175858264,0.3744809174,-0.7625931020,0.2069489456,-0.8406088742,8.3246756532
1520530967354832731,0.0296754484,0.3948840170,-0.7630009805,0.2454311124,-0.8058367991,8.3079971652
1520530967359849731,0.0400090954,0.4149833880,-0.7590790807,0.3127749043,-0.8190325887,8.2748145141
1520530967364864731,0.0475788473,0.4339095821,-0.7527260263,0.3704981545,-0.8190370844,8.2730905274
1520530967369879731,0.0533844029,0.4487542467,-0.7458597362,0.3873341025,-0.8322289403,8.2613180798
1520530967374895731,0.0539010709,0.4560252166,-0.7406647204,0.4065751859,-0.8514166856,8.2193123260
1520530967379911731,0.0536630858,0.4594933236,-0.7300862868,0.4534753267,-0.9137756403,8.1747551642
1520530967384927731,0.0491404831,0.4542204064,-0.7203782490,0.4222085662,-0.9341585924,8.1506743514
1520530967389941731,0.0411015432,0.4498180791,-0.7098453702,0.4378419465,-0.9377572312,8.0947427839
1520530967394957731,0.0320593017,0.4474579634,-0.7003772465,0.4727164101,-0.9917212664,8.0630780707
1520530967399974731,0.0217646589,0.4485961551,-0.6916917498,0.4198034308,-1.0121025326,8.0554779643
1520530967404990731,0.0104576542,0.4462453513,-0.6860070682,0.4318291079,-1.0420819798,8.0658494428
1520530967410006731,-0.0028608387,0.4438974020,-0.6816713822,0.4005623473,-1.0756554765,8.0754836674
1520530967415020731,-0.0171746750,0.4476630350,-0.6753933232,0.3789161285,-1.0636623864,8.0315211948
1520530967420037731,-0.0282223675,0.4534812945,-0.6734345044,0.2670773312,-1.0492639909,7.9942449825
1520530967425053731,-0.0430324190,0.4630795201,-0.6690048716,0.2069489456,-1.0216790782,7.9948033405
1520530967430068731,-0.0598491132,0.4785184888,-0.6696674153,0.1684667787,-1.0096846768,7.9603018903
1520530967435084731,-0.0738965492,0.4974544265,-0.6700378701,0.1925181330,-1.0456607627,7.9426707100
1520530967440100731,-0.0881938765,0.5172636908,-0.6701306429,0.2117592164,-1.0456622613,7.9389969972
1520530967445115731,-0.1009864493,0.5338639454,-0.6686273947,0.2346080030,-1.0084906877,7.9120090407
1520530967450131731,-0.1162949624,0.5466679324,-0.6644429204,0.2899261178,-0.9737199238,7.8870316742
1520530967455148731,-0.1295955077,0.5565537627,-0.6583905894,0.3211928783,-0.9737223589,7.8379172967
1520530967460162731,-0.1449068436,0.5646839423,-0.6499129502,0.3801186962,-0.9701295270,7.7478551564
1520530967465177731,-0.1572081840,0.5675652829,-0.6395871058,0.3632827482,-0.9701282158,7.6852632537
1520530967470194731,-0.1697587140,0.5710249235,-0.6276330732,0.3500545034,-0.9581357813,7.6574888610
1520530967475209731,-0.1795420951,0.5774031345,-0.6170146732,0.3692955868,-1.0013063351,7.6213172137
1520530967480224731,-0.1895687734,0.5875597763,-0.6028498097,0.3825238317,-1.0144979100,7.6386334802
1520530967485241731,-0.1963300998,0.5991862756,-0.5930086325,0.4594881653,-1.0492789765,7.6321075476
1520530967490256731,-0.1993228650,0.6111100068,-0.5847955084,0.4679061393,-1.0696650193,7.6506397943
1520530967495272731,-0.2030701893,0.6215721494,-0.5749688243,0.5136037124,-1.1248290379,7.6978966938
1520530967500288731,-0.2053189140,0.6259187214,-0.5662738088,0.5665166917,-1.1140408951,7.6903982836
1520530967505303731,-0.2040539401,0.6279399662,-0.5592263875,0.5665166917,-1.1356254227,7.6381228537
1520530967510319731,-0.1987744340,0.6247149510,-0.5511442658,0.6122142648,-1.1428238243,7.6632522446
1520530967515334731,-0.1932446405,0.6209079937,-0.5433376028,0.6122142648,-1.1104470329,7.6132484824
1520530967520351731,-0.1887200424,0.6171006425,-0.5355290730,0.6146194003,-1.1380274500,7.5876848001
1520530967525367731,-0.1791678799,0.6159242771,-0.5301447829,0.6254425097,-1.1428248546,7.5701519727
1520530967530382731,-0.1688575555,0.6170756411,-0.5233913788,0.6049988586,-1.2039794240,7.4902226621
1520530967535398731,-0.1545178720,0.6240540857,-0.5157893429,0.6170245357,-1.2099760627,7.4703550110
1520530967540413731,-0.1386766838,0.6275416057,-0.5101106056,0.5977834523,-1.2435504960,7.5251957992
1520530967545429731,-0.1220799722,0.6319021177,-0.5038855075,0.6290502128,-1.2867219864,7.4772856619
1520530967550446731,-0.1027186246,0.6353844602,-0.4957783913,0.7180402236,-1.2639452492,7.4671001186
1520530967555461731,-0.0828597876,0.6333226808,-0.4847384423,0.7697506352,-1.1931999916,7.4479335069
1520530967560476731,-0.0584824134,0.6268882636,-0.4723875111,0.7938019895,-1.1572276521,7.4081514312
1520530967565491731,-0.0313519292,0.6114183668,-0.4587579000,0.8010173958,-1.1584273545,7.4173795218
1520530967570508731,-0.0017122830,0.5936205637,-0.4459623786,0.7601300935,-1.1416362041,7.5072462074
1520530967575523731,0.0251578462,0.5740828401,-0.4366921583,0.7517121195,-1.1260467230,7.5712308589
1520530967580539731,0.0565568037,0.5562849977,-0.4236293580,0.7529146872,-1.1548261868,7.6688673101
1520530967585554731,0.0902136283,0.5376226291,-0.4138239783,0.7577249581,-1.1836059316,7.7269557518
1520530967590570731,0.1223629696,0.5198367370,-0.4050913125,0.7721557707,-1.2099881448,7.7930832219
1520530967595586731,0.1547588151,0.4988471704,-0.3969246592,0.7637377967,-1.2375677189,7.8024892038
1520530967600602731,0.1876495664,0.4749563388,-0.3933804504,0.7925994218,-1.2471630902,7.8231362283
1520530967605618731,0.2217880537,0.4434849028,-0.3880025541,0.8202584792,-1.2339746997,7.8193677174
1520530967610633731,0.2591877098,0.4091067288,-0.3848173233,0.8539303751,-1.2099945137,7.8596916275
1520530967615648731,0.2925643852,0.3732707854,-0.3819062863,0.8936151097,-1.1956079194,7.8860206395
1520530967620664731,0.3277020460,0.3394781365,-0.3800651382,0.8972228128,-1.2075996046,7.8999429451
1520530967625681731,0.3635960693,0.3083118860,-0.3795581121,0.7998148280,-1.1596264012,7.8857364097
1520530967630695731,0.4010028566,0.2806421120,-0.3787566634,0.8142456406,-1.1140601890,7.9099565372
1520530967635711731,0.4391723418,0.2602608888,-0.3792537672,0.8394995626,-1.0936767687,7.9573387544
1520530967640727731,0.4760855954,0.2395856035,-0.3789391228,0.8503226720,-1.0301231692,7.9641442976
1520530967645742731,0.5137612725,0.2221020031,-0.3734610526,0.8394995626,-1.0049403774,7.9874679661
1520530967650759731,0.5526882961,0.2008308962,-0.3680142161,0.8322841563,-0.9893509899,7.9991444346
1520530967655774731,0.5891014965,0.1792688770,-0.3631060273,0.7865865832,-1.0109319585,8.0484203209
1520530967660790731,0.6207416852,0.1568213640,-0.3546785433,0.7577249581,-1.0385099404,8.1300782138
1520530967665805731,0.6548933254,0.1343799346,-0.3481495478,0.7180402236,-1.0756802027,8.1746622005
1520530967670821731,0.6847742969,0.1142737351,-0.3437592006,0.6410758899,-1.1344320892,8.2242786678
1520530967675838731,0.7108855233,0.0944596286,-0.3401712670,0.5340473635,-1.1344237535,8.1974289629
1520530967680853731,0.7362408774,0.0746517826,-0.3390168464,0.4979703321,-1.0936501693,8.2837390097
1520530967685868731,0.7598401779,0.0580528478,-0.3394579802,0.5629089886,-1.0852612440,8.3330709413
1520530967690884731,0.7796704391,0.0429144578,-0.3417748189,0.6410758899,-1.0432974170,8.3101884506
1520530967695899731,0.7967395769,0.0286425825,-0.3416449414,0.6951914370,-0.9761497680,8.4234863476
1520530967700917731,0.8138157008,0.0161037173,-0.3358202615,0.7962071249,-0.9257937377,8.4828854962
1520530967705931731,0.8266093242,-0.0016708166,-0.3340858513,0.8334867240,-0.8598439178,8.4789718940
1520530967710947731,0.8371425323,-0.0191577659,-0.3312628340,0.8022199635,-0.8214689891,8.4734280868
1520530967715962731,0.8418945030,-0.0378132461,-0.3281674284,0.8130430729,-0.8142749895,8.5720979614
1520530967720978731,0.8474014757,-0.0535451162,-0.3285682888,0.7745609061,-0.7687046563,8.5515094971
1520530967725994731,0.8451239007,-0.0663720205,-0.3267680828,0.7180402236,-0.7591071309,8.6136439096
1520530967731010731,0.8405878079,-0.0754052562,-0.3273696892,0.6915837339,-0.7495119470,8.6382970892
1520530967736026731,0.8400772910,-0.0812331436,-0.3274132175,0.7252556298,-0.7351248844,8.7030353770
1520530967741042731,0.8335363079,-0.0858949422,-0.3285188356,0.6639246765,-0.7339209673,8.7303604764
1520530967746056731,0.8202141729,-0.0873527124,-0.3301284901,0.6783554890,-0.7303246700,8.7615943945
1520530967751073731,0.8071398632,-0.0905550491,-0.3331046793,0.6759503536,-0.7303244827,8.7569692288
1520530967756089731,0.7940651145,-0.0937559290,-0.3366219603,0.6963940047,-0.6355939814,8.7822450320
1520530967761104731,0.7804915513,-0.0943352735,-0.3398477541,0.7216479267,-0.5624483825,8.8051707752
1520530967766118731,0.7656615841,-0.0940373145,-0.3444172746,0.7625352289,-0.4917022819,8.8105145321
1520530967771135731,0.7475671511,-0.0922851697,-0.3484285204,0.8130430729,-0.4377448966,8.8088081555
1520530967776150731,0.7324981089,-0.0855885045,-0.3486199320,0.8623483491,-0.4029736644,8.8559422395
1520530967781167731,0.7149171370,-0.0771401460,-0.3504166131,0.9008305159,-0.3442187807,8.8380782207
1520530967786182731,0.6965840210,-0.0701613889,-0.3476237293,0.9188690316,-0.2782674623,8.8715405059
1520530967791198731,0.6792543008,-0.0628835692,-0.3475359483,0.9465280890,-0.2410962634,8.8607757445
1520530967796213731,0.6644317549,-0.0623175355,-0.3434457770,0.9308947088,-0.2686752756,8.9109269951
1520530967801230731,0.6488645020,-0.0570991143,-0.3358015396,0.9164638962,-0.2626784495,8.9424394958
1520530967806246731,0.6295174795,-0.0565312106,-0.3330556967,0.9645666047,-0.2171148598,8.9558725861
1520530967811261731,0.6144414825,-0.0562508325,-0.3311316490,0.9789974173,-0.2183151242,8.9836247497
1520530967816276731,0.5983662689,-0.0533564001,-0.3262097217,0.9814025527,-0.1943325030,8.9719565132
1520530967821292731,0.5815437999,-0.0463865219,-0.3199025416,0.9826051204,-0.1919343158,9.0195903716
1520530967826309731,0.5652217762,-0.0397020038,-0.3157628852,0.9429203859,-0.1859355229,9.0246193676
1520530967831323731,0.5499108011,-0.0280606413,-0.3126694868,0.8996279482,-0.2219063639,9.0994530429
1520530967836339731,0.5343497621,-0.0143745865,-0.3114538814,0.8731714585,-0.2662724990,9.0974295318
1520530967841355731,0.5175319623,-0.0018589326,-0.3086215593,0.8791842971,-0.3118403034,9.1415769116
1520530967846370731,0.5004616797,0.0112459477,-0.3082192374,0.8960202451,-0.3406209848,9.1739811357
1520530967851387731,0.4856455594,0.0173519296,-0.3054395569,0.8960202451,-0.3430192657,9.2460363995
1520530967856403731,0.4675616252,0.0208254296,-0.2994272661,0.9200715993,-0.3682030878,9.2237461194
1520530967861417731,0.4497297817,0.0248817972,-0.2934109959,1.0114667455,-0.3718076272,9.2356436266
1520530967866434731,0.4339120650,0.0303900476,-0.2852229768,1.0691899958,-0.3418336123,9.2257553988
1520530967871448731,0.4165864260,0.0367762314,-0.2786487635,1.0884310792,-0.3238480045,9.1999834108
1520530967876465731,0.4047862758,0.0387843437,-0.2686010678,1.1148875688,-0.2734861672,9.2147846587
1520530967881480731,0.3924855039,0.0407857033,-0.2561175255,1.1269132460,-0.2986690527,9.2762857939
1520530967886496731,0.3821926253,0.0448450245,-0.2501152570,1.0860259437,-0.2758822002,9.3266337384
1520530967891511731,0.3741657015,0.0512326659,-0.2427466748,1.0307078289,-0.2854710153,9.3178843741
1520530967896527731,0.3651384242,0.0619943235,-0.2366956089,1.0078590424,-0.2842700953,9.4471035797
1520530967901544731,0.3608880710,0.0753846831,-0.2322566783,1.0042513393,-0.3130491845,9.5122468205
1520530967906559731,0.3546221797,0.0849862562,-0.2278429141,0.9765922819,-0.3178435920,9.5624929041
1520530967911574731,0.3506172330,0.0951765835,-0.2253227255,0.9801999850,-0.3598137878,9.6496595124
1520530967916590731,0.3493738408,0.1015719822,-0.2198605660,1.0006436361,-0.3598153800,9.6889734209
1520530967921606731,0.3456205340,0.1079561983,-0.2106060969,1.0427335061,-0.3921954495,9.6932438919
1520530967926622731,0.3458813672,0.1102662485,-0.2027429479,1.0258975581,-0.3778044532,9.7561495041
1520530967931639731,0.3509167449,0.1119932150,-0.1940814752,1.0271001258,-0.3646140022,9.7735570957
1520530967936654731,0.3557052617,0.1148761515,-0.1818935468,1.0511514801,-0.3430313478,9.7279783322
1520530967941668731,0.3617439803,0.1128045865,-0.1692046526,1.0980516209,-0.2830779794,9.7181662164
1520530967946684731,0.3677823461,0.1101487956,-0.1559791129,1.0980516209,-0.2602943113,9.6739825287
1520530967951700731,0.3765893115,0.1109921588,-0.1432731218,1.0896336469,-0.1943409324,9.6972430295
1520530967956716731,0.3874028843,0.1092145774,-0.1308614182,1.0727976989,-0.1295860383,9.6985059000
1520530967961732731,0.3972087135,0.1068596606,-0.1206166611,1.0824182406,-0.1235910855,9.7030549886
1520530967966748731,0.4042468253,0.1024661544,-0.1111939692,1.0727976989,-0.0996075277,9.7496110005
1520530967971764731,0.4150573166,0.0977718140,-0.0977223129,1.0607720218,-0.0948100294,9.7392640781
1520530967976779731,0.4256115459,0.0925084462,-0.0893950080,0.9826051204,-0.0828125373,9.7063110387
1520530967981794731,0.4359144333,0.0875378214,-0.0816061052,1.0126693132,-0.1235856532,9.7537060719
1520530967986811731,0.4457185062,0.0851887321,-0.0735257152,0.9946307975,-0.1631558823,9.7771631151
1520530967991827731,0.4540183890,0.0837051928,-0.0624598507,0.9777948496,-0.1331760604,9.8214592226
1520530967996841731,0.4610537760,0.0784426320,-0.0549376494,0.9573511984,-0.1127890810,9.8948533989
1520530968001856731,0.4655759592,0.0746432936,-0.0501051244,1.0138718810,-0.1427719936,9.9756825716
1520530968006874731,0.4695965523,0.0699623203,-0.0425728763,1.0655822926,-0.1223906338,10.0076994061
1520530968011888731,0.4726067163,0.0620786372,-0.0361453988,1.0607720218,-0.0576366763,9.9937373545
1520530968016904731,0.4748570012,0.0501167322,-0.0302887361,1.1088747303,-0.0012808228,10.0734021262
1520530968021920731,0.4786185055,0.0387294458,-0.0211838768,1.1209004074,0.0670692447,10.0732184233
1520530968026936731,0.4813791662,0.0290835169,-0.0096288990,1.1329260845,0.0982459591,10.1102595764
1520530968031952731,0.4856500898,0.0235277601,-0.0018332410,1.0800131052,0.1426182758,10.1502442278
1520530968036967731,0.4914317936,0.0185480788,0.0086695219,1.0030487715,0.2169709763,10.1567315722
1520530968041983731,0.4959617196,0.0202843180,0.0138148314,0.8779817294,0.2325695425,10.2172030383
1520530968046998731,0.4964716602,0.0240652295,0.0165482570,0.7493069841,0.2193890194,10.3009805628
1520530968052015731,0.4989974604,0.0369024303,0.0109599417,0.6049988586,0.2265951012,10.3593232073
1520530968057030731,0.4997722606,0.0543952669,0.0075748300,0.5388576343,0.2194054099,10.4238919189
1520530968062044731,0.5012981855,0.0698487072,0.0041727566,0.5376550666,0.2517822950,10.4761685297
1520530968067062731,0.5010603062,0.0800485240,0.0037099395,0.5556935823,0.2325946433,10.5550374522
1520530968072078731,0.5000556402,0.0809244691,0.0029068379,0.4943626290,0.2973530029,10.6427320623
1520530968077093731,0.4972809287,0.0742259125,0.0012375656,0.4751215456,0.3393244162,10.7439849404
1520530968082109731,0.4917324701,0.0602402029,0.0000589418,0.5015780352,0.3285300919,10.7890615674
1520530968087125731,0.4846686443,0.0380834809,0.0031496063,0.6170245357,0.3465082069,10.8239468045
1520530968092140731,0.4801202649,0.0156268893,0.0097504772,0.7000017079,0.3800776762,10.9067807788
1520530968097154731,0.4730517737,-0.0106121298,0.0138922021,0.7360787393,0.4184473600,10.9749587015
1520530968102171731,0.4644758346,-0.0391944707,0.0223476770,0.8226636146,0.4376268632,11.0229072741
1520530968107187731,0.4569042479,-0.0709933026,0.0351055654,0.8599432137,0.4424205215,11.0725119301
1520530968112202731,0.4473256108,-0.1016332114,0.0500404471,0.9369075473,0.4927784250,11.0949565733
1520530968117219731,0.4400133244,-0.1296534155,0.0663438655,1.0246949904,0.5071612729,11.1475466940
1520530968122234731,0.4309388217,-0.1602982264,0.0831716350,1.0547591832,0.5839039185,11.1669356771
1520530968127250731,0.4266375031,-0.1912289091,0.0986355842,1.1521671679,0.6630396000,11.2030989977
1520530968132266731,0.4225986486,-0.2175133663,0.1200866458,1.1569774388,0.6498486807,11.2146864797
1520530968137281731,0.4180561458,-0.2426237412,0.1383009824,1.1064695949,0.7038139335,11.2325576311
1520530968142297731,0.4157812366,-0.2601426636,0.1511580008,0.9850102558,0.7146156569,11.1895678475
1520530968147311731,0.4127547676,-0.2741572543,0.1610670915,0.9345024119,0.7266109949,11.1912099104
1520530968152328731,0.4122508879,-0.2773728791,0.1648312136,0.8707663231,0.6666589377,11.1651594344
1520530968157344731,0.4127544108,-0.2762049587,0.1640275348,0.7938019895,0.6534743873,11.0996792154
1520530968162359731,0.4122511976,-0.2764958117,0.1637556993,0.7072171142,0.6654725350,11.1307260289
1520530968167376731,0.4122498412,-0.2747351213,0.1591697575,0.6398733222,0.6319018481,11.0942256470
1520530968172391731,0.4062107227,-0.2744184193,0.1489024379,0.6098091294,0.5467652196,11.1062227360
1520530968177406731,0.4054482640,-0.2743903058,0.1383525482,0.5568961500,0.5383753576,11.0916380725
1520530968182422731,0.4044355964,-0.2772928900,0.1340034499,0.5929731814,0.5539613734,11.0726774161
1520530968187439731,0.3999025890,-0.2819458882,0.1299180931,0.6314553482,0.5707463422,11.0513678924
1520530968192454731,0.3948630674,-0.2898057699,0.1263503076,0.7000017079,0.5683427227,11.0716216340
1520530968197469731,0.3925912123,-0.2982611779,0.1279133140,0.7036094110,0.6139097778,11.0610827884
1520530968202485731,0.3903156132,-0.3110946381,0.1321484331,0.7384838747,0.6558769765,11.0514052632
1520530968207501731,0.3895524213,-0.3224793261,0.1396384180,0.8334867240,0.7002377730,11.0701937455
1520530968212515731,0.3867842491,-0.3303703727,0.1479704515,0.8455124011,0.7577955767,11.1420734918
1520530968217532731,0.3855313891,-0.3341880011,0.1587657208,0.8274738854,0.7853772114,11.1526814684
1520530968222548731,0.3862863244,-0.3397524206,0.1692733720,0.8310815886,0.8297451261,11.2595203315
1520530968227564731,0.3832684842,-0.3453073904,0.1757298355,0.8599432137,0.8369377208,11.2615566820
1520530968232579731,0.3817689045,-0.3444571373,0.1843967738,0.8960202451,0.8501254556,11.3471913202
1520530968237595731,0.3775130862,-0.3386588009,0.1947299138,0.8563355106,0.8237474571,11.3847919190
1520530968242610731,0.3732613648,-0.3278981864,0.2018542956,0.8767791617,0.7985639160,11.4090225122
1520530968247626731,0.3690172529,-0.3121869486,0.2100986534,0.8443098334,0.7937698831,11.4883690150
1520530968252643731,0.3625103970,-0.2967657961,0.2175333509,0.8322841563,0.7649914495,11.5745127823
1520530968257658731,0.3562574391,-0.2781334879,0.2228276684,0.8286764532,0.7062338498,11.5955237863
1520530968262672731,0.3507624706,-0.2560020848,0.2273356252,0.8274738854,0.6522726244,11.6327767181
1520530968267690731,0.3409836804,-0.2405654583,0.2285538345,0.8130430729,0.6067064122,11.6480694851
1520530968272705731,0.3307040999,-0.2225007406,0.2276286178,0.7829788801,0.6079078941,11.7366838827
1520530968277721731,0.3181524016,-0.2125978610,0.2274569930,0.8394995626,0.5875181049,11.7547479271
1520530968282736731,0.3086180456,-0.2026996274,0.2294441347,0.8900074065,0.6102978392,11.8146655829
1520530968287753731,0.2985790651,-0.1954291505,0.2333060233,0.8888048388,0.6738523753,11.8634253591
1520530968292769731,0.2867830588,-0.1872881229,0.2382600318,0.8671586200,0.6834471846,11.9740303710
1520530968297782731,0.2775015424,-0.1759314113,0.2397167303,0.8238661823,0.7122299265,12.0580980536
1520530968302799731,0.2672173318,-0.1651687891,0.2452290381,0.8082328020,0.7422096547,12.2081375559
1520530968307815731,0.2566746559,-0.1578948670,0.2477391306,0.7661429321,0.8213562007,12.3444408992
1520530968312829731,0.2458742595,-0.1546975129,0.2491363832,0.7721557707,0.8741179111,12.4465995909
1520530968317846731,0.2363348815,-0.1509292808,0.2551350285,0.7613326612,0.9040972646,12.5570793786
1520530968322862731,0.2303029921,-0.1564905311,0.2634909140,0.7384838747,0.9292809930,12.6700051821
1520530968327877731,0.2210075621,-0.1594298722,0.2716023288,0.7276607653,0.9508663636,12.7165752377
1520530968332893731,0.2137163715,-0.1638115081,0.2745585223,0.7613326612,0.9544611624,12.7743511858
1520530968337909731,0.2059231048,-0.1702439590,0.2815582761,0.8503226720,0.9916275847,12.8617717026
1520530968342925731,0.1996359138,-0.1784263117,0.2893535288,0.9188690316,1.0335921609,12.9284679369
1520530968347940731,0.1938465729,-0.1886416032,0.2946973734,0.9393126828,1.0431836920,12.9886910818
1520530968352956731,0.1898144303,-0.2008988110,0.3011045729,0.9152613285,1.0683675141,13.0888450069
1520530968357972731,0.1883016074,-0.2099563603,0.3099664721,0.9068433545,1.1187320675,13.1121207091
1520530968362987731,0.1870435686,-0.2128787106,0.3129225798,0.9405152505,1.1798856066,13.1524083696
1520530968368003731,0.1845306626,-0.2149288564,0.3164287820,0.9862128236,1.2746141410,13.1786005106
1520530968373019731,0.1832745134,-0.2172720798,0.3207420653,0.9994410684,1.4305013658,13.2248054991
1520530968378035731,0.1867935713,-0.2187370937,0.3242415124,0.9898205267,1.5048488213,13.2329616482
1520530968383050731,0.1865449500,-0.2190387747,0.3280273986,0.9417178182,1.4748740571,13.3612949189
1520530968388066731,0.1785055046,-0.2155365698,0.3248224600,0.9092484899,1.4868679902,13.4185443158
1520530968393081731,0.1707189026,-0.2091124084,0.3186632807,0.9176664639,1.5432269345,13.3742459512
1520530968398096731,0.1669578255,-0.2021170144,0.3173709061,0.8936151097,1.5132502971,13.3477799748
1520530968403112731,0.1621894871,-0.1959932541,0.3149915456,0.7938019895,1.4796821390,13.3452978042
1520530968408128731,0.1531371544,-0.1953929050,0.3071669628,0.7974096926,1.4616947517,13.3185509181
1520530968413143731,0.1471133372,-0.1872241178,0.3026411303,0.7469018487,1.4736900896,13.3631923074
1520530968418160731,0.1368095599,-0.1866410148,0.3010414368,0.7300659007,1.4964750689,13.4458461815
1520530968423176731,0.1257557595,-0.1825586792,0.2983876368,0.7541172550,1.4784860894,13.4770075072
1520530968428192731,0.1111862375,-0.1773150975,0.2968314469,0.7204453590,1.4700947289,13.4668841386
1520530968433208731,0.0971162787,-0.1738174408,0.2944493474,0.7084196819,1.5012733165,13.5064836807
1520530968438223731,0.0812877535,-0.1709076130,0.2936893441,0.7024068433,1.4928798018,13.5077125354
1520530968443239731,0.0626951567,-0.1694630751,0.2956288184,0.7048119787,1.5120658613,13.5111568477
1520530968448253731,0.0415888307,-0.1659681751,0.2932597871,0.6591144056,1.5144677012,13.5185721649
1520530968453270731,0.0217457224,-0.1604462030,0.2957738099,0.6398733222,1.5060752168,13.4606604334
1520530968458286731,-0.0013678305,-0.1560844930,0.2958500947,0.6110116971,1.4485187243,13.4447274677
1520530968463301731,-0.0237254129,-0.1479242907,0.2921662369,0.5917706137,1.4077494485,13.4670352413
1520530968468317731,-0.0491000358,-0.1418093322,0.2900956936,0.5472756083,1.4185451777,13.4953492592
1520530968473332731,-0.0754768627,-0.1336558043,0.2883131247,0.5352499312,1.3885676037,13.4896848235
1520530968478349731,-0.1051270862,-0.1304578216,0.2867693766,0.5689218272,1.3417985047,13.5033484136
1520530968483364731,-0.1327619127,-0.1269829639,0.2909055816,0.6242399420,1.4065477792,13.5515568828
1520530968488381731,-0.1629065638,-0.1226414930,0.2974880362,0.6579118379,1.4233331227,13.5849149451
1520530968493395731,-0.1960729166,-0.1229640844,0.3043110680,0.6867734630,1.4353222791,13.6055409215
1520530968498411731,-0.2264833838,-0.1288189851,0.3100045436,0.7493069841,1.4796856044,13.6188347205
1520530968503428731,-0.2629245917,-0.1376046627,0.3210979076,0.7889917186,1.5612240624,13.7078540230
1520530968508442731,-0.2976103694,-0.1528168645,0.3383616523,0.8479175366,1.6439601623,13.7908741556
1520530968513458731,-0.3345622314,-0.1694788624,0.3526424773,0.8467149689,1.7015189963,13.7966404521
1520530968518474731,-0.3732729656,-0.1861422779,0.3671971152,0.8431072657,1.7542814559,13.8094076998
1520530968523489731,-0.4112322301,-0.2071878208,0.3860457410,0.9441229536,1.8621962266,13.7583470445
1520530968528505731,-0.4499466261,-0.2302784498,0.4067740266,1.0427335061,1.9353361123,13.7410458849
1520530968533521731,-0.4853913655,-0.2513281072,0.4275118064,1.0403283706,2.0264709718,13.6863596593
1520530968538536731,-0.5200758299,-0.2680081582,0.4488226241,1.0186821518,2.1140099086,13.6074591997
1520530968543552731,-0.5570239989,-0.2829262195,0.4647400630,1.0234924227,2.1823605381,13.5875892799
1520530968548568731,-0.5909500662,-0.2914253554,0.4779953500,0.9633640370,2.2459196635,13.4986274733
1520530968553584731,-0.6266299013,-0.2958450687,0.4910144815,1.0715951312,2.2902794298,13.4487207066
1520530968558599731,-0.6615505552,-0.2944280549,0.5008301237,1.1172927043,2.3346440664,13.2983160788
1520530968563615731,-0.6932041480,-0.2927176482,0.5103713757,1.1221029751,2.3538299385,13.1599554186
1520530968568631731,-0.7278751732,-0.2918803913,0.5190999214,1.1196978397,2.3490335641,13.0739848534
1520530968573647731,-0.7630549510,-0.2939498922,0.5251017108,1.1593825742,2.3586235967,12.9643477002
1520530968578663731,-0.7939640523,-0.2954276661,0.5283945531,1.1690031159,2.3742116730,12.8375651673
1520530968583677731,-0.8246184675,-0.2945749937,0.5319752592,1.2002698765,2.3622178336,12.7013016866
1520530968588692731,-0.8545132664,-0.2893505296,0.5353173656,1.2074852827,2.3310396206,12.5873717516
1520530968593711731,-0.8849076285,-0.2823801405,0.5394853816,1.1750159545,2.3286438686,12.3389913205
1520530968598725731,-0.9130325583,-0.2698732877,0.5439619816,1.1714082514,2.3094579028,12.2065607344
1520530968603741731,-0.9368805663,-0.2529903512,0.5471112641,1.2098904182,2.2423030420,12.0702808129
1520530968608756731,-0.9602231658,-0.2358238459,0.5532378411,1.2303340693,2.2267126242,11.9887469516
1520530968613771731,-0.9850751851,-0.2195306281,0.5588194574,1.2531828558,2.1643555427,11.9432617469
1520530968618788731,-1.0076664011,-0.2061605675,0.5681622849,1.2267263661,2.0972057395,11.9249904379
1520530968623804731,-1.0290067055,-0.1951130781,0.5745089892,1.2183083922,2.0492407782,11.8507419338
1520530968628820731,-1.0521070701,-0.1849411599,0.5811228372,1.2219160953,1.9772920718,11.7496704550
1520530968633835731,-1.0704373282,-0.1765083939,0.5850090201,1.1918519025,1.9101425496,11.6651920557
1520530968638851731,-1.0872632236,-0.1701125436,0.5880652032,1.2183083922,1.8333955020,11.5627407142
1520530968643865731,-1.1030895495,-0.1657465215,0.5875868613,1.1930544702,1.7506567796,11.4631228247
1520530968648881731,-1.1133865092,-0.1607955643,0.5871026976,1.1726108191,1.7038918953,11.4157195128
1520530968653898731,-1.1226851814,-0.1610898633,0.5868471974,1.1822313608,1.6415358440,11.2901751309
1520530968658913731,-1.1334909448,-0.1616797797,0.5879450039,1.2086878505,1.6007630091,11.2051208686
1520530968663929731,-1.1397700322,-0.1608153718,0.5906688002,1.2339417724,1.5827739359,11.1188939499
1520530968668945731,-1.1452954035,-0.1617062600,0.5960833168,1.1425466262,1.5336162967,11.0129142333
1520530968673960731,-1.1488111761,-0.1631791296,0.6014896534,1.0764054020,1.4197031078,10.9160490065
1520530968678976731,-1.1498126313,-0.1602649498,0.6012432052,1.0102641778,1.3765392038,10.8191147886
1520530968683991731,-1.1475465745,-0.1526683983,0.5939920658,0.8876022711,1.3369771232,10.7145921927
1520530968689007731,-1.1460350688,-0.1436064784,0.5835068911,0.7529146872,1.3309919110,10.6775582553
1520530968694022731,-1.1442676813,-0.1284130017,0.5684686543,0.7000017079,1.3154072065,10.6780884792
1520530968699038731,-1.1470199209,-0.1059162879,0.5459191106,0.6603169733,1.2914274888,10.7203353152
1520530968704054731,-1.1495219986,-0.0816595135,0.5190537043,0.5965808846,1.2110900444,10.7175475970
1520530968709070731,-1.1545358335,-0.0568224116,0.4927385032,0.6001885877,1.1343447763,10.7048037361
1520530968714086731,-1.1608134663,-0.0375228364,0.4666539431,0.5713269626,1.0683943009,10.6946896755
1520530968719102731,-1.1718718496,-0.0231808541,0.4413520958,0.5136037124,1.0132383371,10.6127930870
1520530968724118731,-1.1814294810,-0.0146688853,0.4170851702,0.4378419465,0.9412958123,10.5473584606
1520530968729134731,-1.1904838169,-0.0079152248,0.3965916151,0.4402470819,0.8753429016,10.4497792720
