#timestamp [ns],w_RS_S_x [rad s^-1],w_RS_S_y [rad s^-1],w_RS_S_z [rad s^-1],a_RS_S_x [m s^-2],a_RS_S_y [m s^-2],a_RS_S_z [m s^-2]
1520530308181901469,0.1045577128,-0.0792420275,0.0178416359,-0.3522450410,0.0000321145,9.9237603029
1520530308186917469,0.0957535505,-0.0827289761,0.0129614680,-0.3053449002,0.0096215851,9.9546723377
1520530308191934469,0.0874502217,-0.0891368572,0.0107635949,-0.2632550302,0.0312028346,9.9519173247
1520530308196949469,0.0816575876,-0.0993412223,0.0120492510,-0.1802778580,0.0192049679,9.9546078011
1520530308201966469,0.0753648219,-0.1069196814,0.0120031189,-0.1273648786,0.0275948298,9.9447874416
1520530308206981469,0.0723394271,-0.1133276803,0.0106070822,-0.1093263629,0.0503770929,9.9155360494
1520530308211997469,0.0673078208,-0.1168233500,0.0095075560,-0.1153392015,0.0707629484,9.8388731950
1520530308217014469,0.0617842137,-0.1147931087,0.0122388445,-0.0576159513,0.0899446995,9.8196983396
1520530308222029469,0.0585267849,-0.1089717971,0.0141831949,-0.0263491907,0.1510984260,9.8053886443
1520530308227046469,0.0572838829,-0.0999437396,0.0158777195,-0.0600210867,0.2242486143,9.7184842597
1520530308232062469,0.0580584478,-0.0883040886,0.0219172525,-0.0347671647,0.2362380517,9.6705788580
1520530308237077469,0.0573316844,-0.0728814001,0.0296117613,-0.0359697325,0.2350390049,9.6066738149
1520530308242094469,0.0568550791,-0.0571621296,0.0354142051,-0.0263491907,0.2434322386,9.5775183902
1520530308247109469,0.0558831759,-0.0373695001,0.0434130728,-0.1297700141,0.2338471699,9.4878871513
1520530308252126469,0.0591794402,-0.0193184049,0.0494968464,-0.2548370562,0.2098741021,9.4077777872
1520530308257141469,0.0624735131,0.0002034530,0.0504513634,-0.3005346293,0.1163447082,9.4025030680
1520530308262157469,0.0642571075,0.0170993458,0.0524708566,-0.3486373378,0.0815733823,9.3925458855
1520530308267175469,0.0642780503,0.0328355671,0.0520498114,-0.3161680096,0.0072241472,9.4353016744
1520530308272190469,0.0695570429,0.0345881271,0.0512417110,-0.1682521809,-0.0491469729,9.6082385045
1520530308277206469,0.0687907383,0.0249699571,0.0519813870,-0.1033135244,-0.0515503113,9.7238231655
1520530308282221469,0.0675069698,0.0060345695,0.0499453988,-0.0263491907,-0.0719416928,9.7498232316
1520530308287237469,0.0682381201,-0.0108661661,0.0500856056,0.0506151429,-0.0251812105,9.8303785806
1520530308292254469,0.0682106693,-0.0300931743,0.0483156066,0.1335923151,0.0443624715,9.8829617319
1520530308297269469,0.0706984885,-0.0499121651,0.0503241368,0.1167563671,0.1438924379,9.9051092827
1520530308302286469,0.0726910609,-0.0630236812,0.0502203641,0.1275794765,0.2122425991,9.9095858607
1520530308307302469,0.0741868378,-0.0738130591,0.0533818604,0.1528333985,0.2530114066,9.8291123641
1520530308312316469,0.0792072238,-0.0790611105,0.0552263317,0.1516308308,0.2901848534,9.8558171306
1520530308317334469,0.0842298093,-0.0828529677,0.0573524642,0.1780873205,0.3141656014,9.8474012249
1520530308322350469,0.0869970837,-0.0822763999,0.0600572354,0.1155537994,0.3525429652,9.7991624229
1520530308327366469,0.0925333577,-0.0764458149,0.0598208833,0.0349817626,0.3297655724,9.7430238253
1520530308332382469,0.0940517554,-0.0679921592,0.0588003689,-0.0275517585,0.2985927917,9.6797449736
1520530308337397469,0.0963256334,-0.0583726700,0.0577873466,-0.1442008266,0.2542336811,9.6518700308
1520530308342414469,0.1036304630,-0.0437918472,0.0546384151,-0.2788884105,0.1679060605,9.6230494467
1520530308347429469,0.1079183032,-0.0286221526,0.0487940716,-0.3486373378,0.0863699440,9.6354292946
1520530308352446469,0.1084305922,-0.0169461785,0.0413067764,-0.4231965360,0.0456049765,9.6059790228
1520530308357460469,0.1104457501,-0.0075948625,0.0316345291,-0.3606630150,-0.0287466001,9.6403071776
1520530308362477469,0.1117011544,-0.0046637710,0.0254318708,-0.2921166553,-0.0575313089,9.7291531380
1520530308367493469,0.1104315661,-0.0081331972,0.0151267833,-0.2740781396,-0.0455413095,9.7696409071
1520530308372509469,0.1096667278,-0.0113168695,0.0069873527,-0.2716730042,-0.0299526713,9.8091151900
1520530308377526469,0.1094033423,-0.0156673398,-0.0006208120,-0.1790752903,-0.0275616023,9.7989144104
1520530308382542469,0.1041099737,-0.0241042616,-0.0063569441,-0.1237571755,0.0371876722,9.7948264016
1520530308387557469,0.1015792181,-0.0345834342,-0.0107610422,-0.0985032535,0.0395839862,9.8457125907
1520530308392573469,0.0998048680,-0.0427290500,-0.0159603936,-0.0479954096,0.0467748950,9.8882132886
1520530308397589469,0.0950146184,-0.0532163930,-0.0176548323,-0.0455902742,0.0899437629,9.9067420856
1520530308402606469,0.0912310577,-0.0634155999,-0.0179961853,-0.0756544670,0.0839504023,9.9744449080
1520530308407621469,0.0841774486,-0.0744836844,-0.0207730533,-0.0516031127,0.1043339163,9.9579209128
1520530308412636469,0.0781342724,-0.0808855804,-0.0248689482,-0.1153392015,0.0635681059,9.9330138713
1520530308417654469,0.0695811423,-0.0855423392,-0.0281351998,-0.1658470455,0.0287969673,9.9800251527
1520530308422670469,0.0622885601,-0.0849434861,-0.0351514119,-0.2211651602,-0.0131686391,9.9224973144
1520530308427685469,0.0547482937,-0.0790881551,-0.0464558761,-0.2728755719,-0.0875113180,9.8661280771
1520530308432701469,0.0477086020,-0.0743967085,-0.0583112579,-0.2259754311,-0.0899132516,9.8807817900
1520530308437718469,0.0378996561,-0.0717387522,-0.0728825263,-0.2019240768,-0.1150970737,9.9131122757
1520530308442733469,0.0275847605,-0.0746311391,-0.0823547279,-0.1718598840,-0.1150994152,9.9151439372
1520530308447749469,0.0175164632,-0.0783859262,-0.0961627998,-0.1297700141,-0.1139035528,9.8996252195
1520530308452765469,0.0056863886,-0.0847667769,-0.1089054288,-0.0828698733,-0.1019158014,9.8945084531
1520530308457782469,-0.0038758807,-0.0864838607,-0.1218872348,-0.1225546078,-0.0587436553,9.9064740633
1520530308462797469,-0.0131862788,-0.0876173486,-0.1351356073,-0.1526188006,-0.0695335776,9.8986422061
1520530308467814469,-0.0252537896,-0.0823363608,-0.1502237592,-0.1297700141,-0.0515482508,9.8170521931
1520530308472829469,-0.0358128018,-0.0758863305,-0.1663880027,-0.1153392015,-0.0731339024,9.7971763333
1520530308477846469,-0.0446052028,-0.0653627834,-0.1800894770,-0.1249597432,-0.0395572212,9.7449407543
1520530308482861469,-0.0553993735,-0.0493073602,-0.1923922494,-0.1838855611,-0.0359552106,9.6571878536
1520530308487877469,-0.0641760302,-0.0294697063,-0.2022349424,-0.1826829934,-0.0383535851,9.5560719632
1520530308492893469,-0.0706890999,-0.0061250825,-0.2155722556,-0.2019240768,-0.0563391929,9.4946831546
1520530308497909469,-0.0799621011,0.0204236882,-0.2288799809,-0.2259754311,-0.1114977792,9.3775945060
1520530308502925469,-0.0857039422,0.0557117310,-0.2407748182,-0.2355959728,-0.1150944512,9.2661258348
1520530308507941469,-0.0939652794,0.0875080022,-0.2548560326,-0.2271779988,-0.1007054217,9.2230305410
1520530308512956469,-0.0987054457,0.1198811367,-0.2662338759,-0.1826829934,-0.1258908360,9.2458648892
1520530308517974469,-0.1054538111,0.1507827206,-0.2724787288,-0.1297700141,-0.1234966762,9.2232667929
1520530308522989469,-0.1119544453,0.1775984637,-0.2763202586,-0.1021109567,-0.0815289156,9.2403888090
1520530308528005469,-0.1169525673,0.2000418444,-0.2793862973,-0.0816673055,-0.0791322270,9.2459982041
1520530308533022469,-0.1247140120,0.2218955455,-0.2802872811,-0.0804647378,-0.0407598271,9.3203262933
1520530308538037469,-0.1307179096,0.2408280779,-0.2782377579,-0.0888827118,-0.0083823800,9.3866188619
1520530308543054469,-0.1389938858,0.2498424521,-0.2724719766,-0.0804647378,0.0383834409,9.4515713837
1520530308548069469,-0.1427462674,0.2573943916,-0.2640202527,-0.0612236544,0.0335853806,9.4955502505
1520530308553086469,-0.1487613068,0.2640705630,-0.2553004517,-0.1285674464,0.0144043788,9.5682773682
1520530308558102469,-0.1580437995,0.2716254355,-0.2487322812,-0.1718598840,0.0863561760,9.5895471811
1520530308563117469,-0.1643146697,0.2748041657,-0.2397681447,-0.1935061029,0.1019466873,9.6978220584
1520530308568133469,-0.1705941649,0.2709867535,-0.2297751785,-0.1369854203,0.1055397066,9.7925642170
1520530308573150469,-0.1771313884,0.2601658162,-0.2160474572,-0.0636287899,0.1439064869,9.8080828050
1520530308578167469,-0.1804041108,0.2446708946,-0.1974915465,-0.0455902742,0.1870741372,9.8880530658
1520530308583182469,-0.1821762146,0.2227610051,-0.1770935228,0.1540359662,0.3837176191,9.9533226042
1520530308588199469,-0.1837020965,0.1906236184,-0.1459519379,0.3260031491,0.6631039444,10.0513207051
1520530308593214469,-0.1829669672,0.1511719104,-0.1035072030,0.2322028675,0.6391284414,10.0615542379
1520530308598230469,-0.1787104749,0.1184430926,-0.0683226105,0.2394182738,0.6187424922,9.9987481128
1520530308603246469,-0.1706870836,0.0883586085,-0.0407002961,0.2562542218,0.7326595212,10.0751746558
1520530308608261469,-0.1609078976,0.0568222615,-0.0147156397,0.2694824666,0.7950137930,10.0912551099
1520530308613276469,-0.1501195566,0.0282001536,0.0112893808,0.2105566487,0.8213994716,10.1324779706
1520530308618294469,-0.1373177828,0.0042519123,0.0332680484,0.1600488048,0.8261999671,10.1364513375
1520530308623310469,-0.1265238356,-0.0132662611,0.0477240725,0.0770716326,0.8034227615,10.1233354764
1520530308628326469,-0.1132128464,-0.0255283303,0.0584278024,0.0145381115,0.7830422447,10.0600461006
1520530308633342469,-0.1019074453,-0.0316604572,0.0648532166,-0.0119183782,0.7434726712,10.1277465494
1520530308638358469,-0.0875919036,-0.0380660333,0.0650482514,0.0289689240,0.7254823804,10.0715832077
1520530308643374469,-0.0750285931,-0.0403972858,0.0669009518,0.0975152837,0.6715157228,10.0244828816
1520530308648390469,-0.0581893722,-0.0389344950,0.0671513427,0.1396051536,0.6307416703,9.9392764535
1520530308653406469,-0.0418554344,-0.0400972757,0.0684648428,0.1227692057,0.5755825220,9.8674411887
1520530308658422469,-0.0292907164,-0.0415551030,0.0705947584,0.1744796173,0.5264137373,9.8216622000
1520530308663439469,-0.0132075953,-0.0430122804,0.0729886857,0.1949232684,0.4520654388,9.8308328647
1520530308668453469,0.0036309983,-0.0462305813,0.0802377005,0.1889104299,0.4100959923,9.7821222708
1520530308673469469,0.0204737711,-0.0465357653,0.0877794921,0.1468205599,0.3285577216,9.7314771289
1520530308678486469,0.0368135071,-0.0468396895,0.0947811253,0.0878947420,0.2710035706,9.6972424863
1520530308683502469,0.0546645174,-0.0424714008,0.0982984308,0.0205509501,0.2158483561,9.6444931371
1520530308688518469,0.0712623385,-0.0337240954,0.0986048656,-0.0528056804,0.1618927503,9.6208547428
1520530308693533469,0.0903713524,-0.0232136580,0.0937795995,-0.1393905558,0.0899510684,9.6566319859
1520530308698550469,0.1067111983,-0.0153223938,0.0873161843,-0.1959112383,0.0096130621,9.6386661660
1520530308703566469,0.1212984171,-0.0036481905,0.0825082117,-0.2355959728,-0.0227606386,9.6913804829
1520530308708582469,0.1363818629,0.0065838556,0.0722772722,-0.2548370562,-0.0911101442,9.7636873413
1520530308713597469,0.1486874335,0.0092497475,0.0579354780,-0.3666758535,-0.1306730678,9.8310567052
1520530308718613469,0.1572164453,0.0093033568,0.0392519426,-0.3642707181,-0.1618509061,9.9379809417
1520530308723630469,0.1624740755,0.0026385449,0.0262048075,-0.3690809889,-0.1966256037,10.0798432351
1520530308728645469,0.1682205350,-0.0133467328,0.0117328707,-0.3029397647,-0.1822410699,10.1407790545
1520530308733662469,0.1696823337,-0.0377801933,-0.0041483308,-0.2969269262,-0.1354750617,10.2824564874
1520530308738678469,0.1703929567,-0.0628083732,-0.0157038439,-0.3017371970,-0.0995004744,10.2952518110
1520530308743693469,0.1703543877,-0.0855108712,-0.0253463509,-0.3342065253,-0.0479349074,10.3164361571
1520530308748710469,0.1685579148,-0.1073399049,-0.0349789216,-0.3787015306,0.0168221409,10.3423732669
1520530308753726469,0.1675227283,-0.1242172915,-0.0437634624,-0.3366116607,0.1067543946,10.3000387071
1520530308758741469,0.1644886616,-0.1387920699,-0.0422457406,-0.3065474679,0.1499211083,10.2427589307
1520530308763757469,0.1614616319,-0.1489997226,-0.0393419430,-0.3041423324,0.2038822401,10.1171713533
1520530308768773469,0.1589442841,-0.1536694155,-0.0369379321,-0.2428113791,0.2158688676,10.0445097768
1520530308773789469,0.1579408843,-0.1554319566,-0.0318090317,-0.1249597432,0.2866089739,9.9631057575
1520530308778805469,0.1569428868,-0.1566270258,-0.0209942213,-0.0143235136,0.3693410464,9.8887331387
1520530308783821469,0.1541876401,-0.1584142944,-0.0069340393,0.0782742003,0.3981132048,9.8622366183
1520530308788837469,0.1541932933,-0.1625308278,0.0068326782,0.1612513725,0.4592629038,9.7718842486
1520530308793852469,0.1521959811,-0.1649165955,0.0268390236,0.2550516541,0.5683773769,9.7685405564
1520530308798869469,0.1494446782,-0.1696439329,0.0506166271,0.3187877429,0.6726976297,9.7166841219
1520530308803886469,0.1514732830,-0.1726305621,0.0779157979,0.3199903106,0.7314554168,9.7166151192
1520530308808901469,0.1517397655,-0.1759005238,0.1019694620,0.3211928783,0.7350527444,9.7747071039
1520530308813916469,0.1527565337,-0.1829632880,0.1278866470,0.2935338209,0.7458471624,9.8423701455
1520530308818934469,0.1507555285,-0.1870929923,0.1462563786,0.2406208415,0.7146736325,9.9451842387
1520530308823950469,0.1467414118,-0.1906290604,0.1603055557,0.1480231276,0.6739100699,9.9740167405
1520530308828966469,0.1412236893,-0.1883256453,0.1698027146,0.0470074397,0.6091643545,9.9343880712
1520530308833981469,0.1389680647,-0.1862977661,0.1738806652,0.0169432469,0.5839847471,9.9254081021
1520530308838998469,0.1339444207,-0.1842585867,0.1733644695,-0.0083106751,0.5504107821,9.9407945212
1520530308844012469,0.1289221450,-0.1795896622,0.1701628225,-0.0083106751,0.4904537609,9.9745551628
1520530308849029469,0.1226428068,-0.1740412489,0.1648058113,-0.0275517585,0.4412905021,9.9410882120
1520530308854045469,0.1176193902,-0.1690758409,0.1597125662,0.0181458146,0.3897239048,9.9325586937
1520530308859062469,0.1108355215,-0.1638139101,0.1524604441,0.0433997366,0.3225700742,9.8742711728
1520530308864077469,0.1017939191,-0.1571024986,0.1476585510,-0.0191337845,0.3069861191,9.8063285439
1520530308869093469,0.0937606404,-0.1463032972,0.1399099093,-0.0371723002,0.2290433964,9.7566079367
1520530308874110469,0.0852294686,-0.1331783154,0.1340738070,-0.0239440553,0.2122544002,9.7204690893
1520530308879126469,0.0756984254,-0.1159736157,0.1280001489,-0.0852750087,0.1798823855,9.7083140358
1520530308884141469,0.0671686649,-0.1005117303,0.1200174642,-0.1189469046,0.1319193910,9.6970671114
1520530308889158469,0.0581296185,-0.0902964202,0.1125367891,-0.1069212275,0.0947451013,9.7469585004
1520530308894173469,0.0478340780,-0.0800816024,0.1050584477,-0.1538213683,0.0923504732,9.6846615628
1520530308899190469,0.0360393185,-0.0655053485,0.1008628036,-0.1393905558,0.0683665408,9.6066808439
1520530308904206469,0.0239889516,-0.0529637858,0.0947582434,-0.1634419100,0.0479830268,9.6371505666
1520530308909221469,0.0159614359,-0.0380859294,0.0873112708,-0.1983163737,0.0479857429,9.6491114528
1520530308914237469,0.0049277473,-0.0170938216,0.0812693131,-0.1646444777,0.0743642098,9.6429472660
1520530308919254469,-0.0036032442,-0.0022132484,0.0727410904,-0.1201494724,0.0635684805,9.6564704304
1520530308924270469,-0.0131407522,0.0112078231,0.0650152568,-0.0816673055,0.0719594664,9.7188434568
1520530308929286469,-0.0236875053,0.0208368597,0.0586151195,-0.0179312168,0.0863441875,9.7368033600
1520530308934301469,-0.0314763106,0.0243413484,0.0545980765,0.0409946012,0.1055258449,9.8140747477
1520530308939318469,-0.0377625606,0.0231806332,0.0518953933,0.0806793357,0.1426961073,9.8368951104
1520530308944332469,-0.0443070171,0.0167741696,0.0494237072,0.1239717734,0.1786669482,9.8283036405
1520530308949349469,-0.0513507704,0.0132835397,0.0461635476,0.1263769088,0.1918573055,9.8050244886
1520530308954364469,-0.0543755458,0.0086296754,0.0426164823,0.1804924559,0.2194333206,9.7684444037
1520530308959381469,-0.0576597157,-0.0021440908,0.0392937448,0.1901129976,0.2434153798,9.7706516644
1520530308964397469,-0.0609356605,-0.0076765778,0.0373637523,0.1937207007,0.2446142392,9.7926961150
1520530308969415469,-0.0609394437,-0.0102983101,0.0370731987,0.1889104299,0.2697965628,9.7125304462
1520530308974429469,-0.0596875247,-0.0135023192,0.0367758652,0.1792898882,0.3069706652,9.7079392614
1520530308979445469,-0.0564264421,-0.0158233743,0.0335054624,0.1311871796,0.3081735520,9.6770284075
1520530308984462469,-0.0539145437,-0.0128917906,0.0273004704,0.0902998774,0.2805965067,9.6867504259
1520530308989478469,-0.0486416160,-0.0131679958,0.0224186200,0.1083383931,0.3069761911,9.7272241629
1520530308994493469,-0.0443711981,-0.0108192203,0.0164764607,0.0878947420,0.2781984132,9.7239647812
1520530308999509469,-0.0363355240,-0.0125527220,0.0121194527,0.0686536586,0.2470222607,9.7729925110
1520530309004525469,-0.0325754937,-0.0169103582,0.0077503712,0.1023255545,0.2374265148,9.7912684274
1520530309009542469,-0.0280637192,-0.0215532561,0.0012132993,0.1191615025,0.2769968376,9.7759580970
1520530309014557469,-0.0207874419,-0.0276592779,-0.0026345630,0.1732770496,0.2302261464,9.7754769737
1520530309019574469,-0.0147720536,-0.0352147019,-0.0094672120,0.1696693465,0.2494126741,9.7801419552
1520530309024590469,-0.0087533682,-0.0413175739,-0.0146654701,0.2105566487,0.2542060514,9.7634692906
1520530309029606469,-0.0050007278,-0.0506265617,-0.0198839817,0.2081515133,0.2865830301,9.7518396890
1520530309034622469,-0.0007433296,-0.0567228385,-0.0277844318,0.1828975913,0.2673987502,9.8171842661
1520530309039638469,0.0030118198,-0.0636985649,-0.0337967964,0.2225823258,0.2673956594,9.8307437267
1520530309044653469,0.0055120158,-0.0692164040,-0.0403368038,0.2622670604,0.2757865516,9.8047821074
1520530309049669469,0.0085214977,-0.0694876678,-0.0473788208,0.2622670604,0.2997693601,9.7338679394
1520530309054686469,0.0110348467,-0.0659755003,-0.0527677289,0.2827107115,0.3465342444,9.6731918636
1520530309059702469,0.0107935842,-0.0566425527,-0.0559426742,0.3115723366,0.4016924560,9.6135878110
1520530309064717469,0.0120703625,-0.0409036538,-0.0571776907,0.3284082846,0.4304705149,9.5552886784
1520530309069733469,0.0140989635,-0.0289626565,-0.0546553650,0.3428390971,0.4796341484,9.5144252364
1520530309074750469,0.0168877924,-0.0138226898,-0.0496750724,0.3849289671,0.5275964872,9.5581302561
1520530309079766469,0.0164092464,-0.0013166618,-0.0409210776,0.4137905922,0.5515770478,9.6170952896
1520530309084782469,0.0169341708,0.0065123105,-0.0265230552,0.3801186962,0.5827573213,9.6708512503
1520530309089797469,0.0182062603,0.0093880412,-0.0121642255,0.3320159877,0.5659731018,9.7736044913
1520530309094812469,0.0169579754,0.0087749142,-0.0010739563,0.3404339617,0.5647733058,9.8711438174
1520530309099830469,0.0144541569,0.0061092199,0.0146023651,0.3488519357,0.5311967183,9.9710390035
1520530309104845469,0.0101762471,-0.0064591385,0.0283125474,0.3067620657,0.5096154688,10.0714141087
1520530309109862469,0.0076456482,-0.0239635908,0.0357591146,0.3067620657,0.4880309411,10.1771902566
1520530309114876469,0.0033525273,-0.0435062386,0.0423817496,0.2418234092,0.4880359988,10.2638209823
1520530309119893469,-0.0029548538,-0.0650857237,0.0476398273,0.2189746227,0.4976309017,10.3790862751
1520530309124909469,-0.0092679940,-0.0892803851,0.0501724382,0.1841001590,0.4964344774,10.3736161713
1520530309129926469,-0.0143240205,-0.1117204197,0.0505516869,0.1420102891,0.4880437726,10.3391697150
1520530309134942469,-0.0213867408,-0.1309538268,0.0501474856,0.0963127160,0.4592679615,10.3245346999
1520530309139958469,-0.0279442641,-0.1469759798,0.0476024377,0.0734639294,0.4736594261,10.3073109046
1520530309144972469,-0.0324856338,-0.1589186902,0.0453553251,0.1143512317,0.4772536629,10.2081271885
1520530309149989469,-0.0352586752,-0.1650373914,0.0447726824,0.1456179922,0.4652598235,10.1113766023
1520530309155006469,-0.0400409586,-0.1685264068,0.0412377765,0.1420102891,0.4412772960,9.9824371253
1520530309160021469,-0.0400400725,-0.1656023635,0.0374723648,0.1588462370,0.3285567850,9.8498987616
1520530309165036469,-0.0422951992,-0.1580148685,0.0329350853,0.1564411016,0.2614051086,9.7651511461
1520530309170054469,-0.0430428308,-0.1469134146,0.0221991269,0.0890973097,0.2254361409,9.6507894579
1520530309175070469,-0.0432842972,-0.1317258245,0.0090584451,0.0157406792,0.0887398459,9.5923674294
1520530309180086469,-0.0437755726,-0.1177140690,-0.0003030197,0.0193483823,0.0587610543,9.5272814863
1520530309185102469,-0.0425089442,-0.1045757779,-0.0096744208,0.0133355438,0.0107959057,9.5494675203
1520530309190117469,-0.0402470155,-0.0972582277,-0.0215270636,-0.0323620293,-0.0683438032,9.5732323679
1520530309195133469,-0.0364796265,-0.0919812353,-0.0328569765,-0.0335645970,-0.0791359734,9.5895246123
1520530309200149469,-0.0342158553,-0.0852551952,-0.0414675148,-0.0239440553,-0.0887298460,9.5813053189
1520530309205167469,-0.0271830830,-0.0831916223,-0.0493108524,0.0590331169,-0.1019268532,9.5317004867
1520530309210182469,-0.0229135473,-0.0823034116,-0.0539113977,0.0806793357,-0.0599586243,9.5023952699
1520530309215197469,-0.0193995820,-0.0834588302,-0.0571733749,0.1552385339,-0.0263884994,9.5167446863
1520530309220214469,-0.0168979825,-0.0895667227,-0.0610123695,0.1985309716,-0.0203961690,9.5511817762
1520530309225230469,-0.0071124178,-0.1003426536,-0.0616539176,0.2526465187,0.0239678120,9.5657196546
1520530309230245469,-0.0025994712,-0.1099653119,-0.0584891297,0.2983440917,0.0863195549,9.6058890952
1520530309235262469,0.0049291869,-0.1219287915,-0.0512895387,0.3500545034,0.1522682508,9.5971864564
1520530309240277469,0.0091921559,-0.1300924404,-0.0489248063,0.3488519357,0.2110262252,9.6041137276
1520530309245293469,0.0117054422,-0.1336048241,-0.0427335950,0.3428390971,0.2422043445,9.5983311303
1520530309250309469,0.0147288885,-0.1333370248,-0.0335384121,0.3272057169,0.2913703195,9.5856517696
1520530309255326469,0.0185075525,-0.1316098221,-0.0251451517,0.3175851752,0.3321418432,9.5984892360
1520530309260342469,0.0205338090,-0.1261004089,-0.0148259028,0.2947363886,0.3489315886,9.5801009581
1520530309265357469,0.0215543919,-0.1188336126,-0.0080085452,0.2682798989,0.3417388066,9.5338797272
1520530309270374469,0.0208140365,-0.1124394739,-0.0020062274,0.2634696281,0.3657219897,9.5432003122
1520530309275390469,0.0223330811,-0.1083784390,0.0050562888,0.2430259770,0.3909055308,9.5724283409
1520530309280405469,0.0200870850,-0.1016993339,0.0132279971,0.3007492272,0.3693165075,9.5521310991
1520530309285422469,0.0208612029,-0.0929851831,0.0235740335,0.2610644926,0.3681204579,9.5885449979
1520530309290438469,0.0228860951,-0.0886420363,0.0341549360,0.2201771904,0.3789159061,9.5877703018
1520530309295453469,0.0211408462,-0.0842981811,0.0439312016,0.1636565079,0.3633314826,9.6162270958
1520530309300469469,0.0181368608,-0.0811181710,0.0528892707,0.2069489456,0.3861117789,9.6541342468
1520530309305485469,0.0181502685,-0.0753086912,0.0596973799,0.2153669196,0.3717214382,9.6436070479
1520530309310501469,0.0189092145,-0.0753251498,0.0659185353,0.2574567895,0.3633241772,9.6257733969
1520530309315517469,0.0194161599,-0.0750466801,0.0707896511,0.2766978729,0.3657209594,9.6639345279
1520530309320534469,0.0219330999,-0.0750588073,0.0756548099,0.2694824666,0.3933017511,9.6883828864
1520530309325549469,0.0267126978,-0.0741951664,0.0802518917,0.2899261178,0.3609233675,9.6370811386
1520530309330566469,0.0304876766,-0.0712849433,0.0821609430,0.3332185554,0.3717122595,9.6134063535
1520530309335581469,0.0327616330,-0.0651780939,0.0870732534,0.3175851752,0.3105573155,9.5531866699
1520530309340598469,0.0390499060,-0.0628532975,0.0903259207,0.3079646335,0.2805795542,9.5265802329
1520530309345613469,0.0448347893,-0.0611114670,0.0935750754,0.3344211231,0.2553955448,9.5507523008
1520530309350629469,0.0506182652,-0.0602430617,0.0965470148,0.3957520765,0.2326071001,9.5176375296
1520530309355646469,0.0571601696,-0.0558770182,0.0992736853,0.3187877429,0.2086302859,9.5439772070
1520530309360662469,0.0606805526,-0.0544194457,0.0995488125,0.3656878837,0.1822455438,9.5342492837
1520530309365676469,0.0662173989,-0.0480053632,0.0990463606,0.3344211231,0.1954385236,9.5054871535
1520530309370694469,0.0715025544,-0.0404192852,0.0961183548,0.3055594980,0.2422072480,9.4755067279
1520530309375709469,0.0785504515,-0.0307957400,0.0942848271,0.3296108523,0.2565950599,9.5147714891
1520530309380725469,0.0861071053,-0.0168019584,0.0927542581,0.3620801805,0.2685839353,9.5609295174
1520530309385742469,0.0876354452,-0.0013565309,0.0923281895,0.3644853160,0.2517957820,9.5353553110
1520530309390758469,0.0896601375,0.0103047369,0.0905195579,0.3873341025,0.2889673556,9.5246373698
1520530309395772469,0.0941997117,0.0240095946,0.0876396370,0.4065751859,0.3201435081,9.5267439740
1520530309400790469,0.0984836314,0.0345091241,0.0847357289,0.3825238317,0.3345350664,9.5490447782
1520530309405806469,0.1027644227,0.0409212574,0.0847767025,0.3861315348,0.3381322067,9.5745733220
1520530309410821469,0.1040259781,0.0452954313,0.0837255316,0.4017649151,0.3669103592,9.6150681305
1520530309415836469,0.1077995495,0.0473322293,0.0853573677,0.3945495088,0.3789023254,9.7092603278
1520530309420853469,0.1103153096,0.0493729055,0.0853682621,0.4077777536,0.4016849632,9.7009743470
1520530309425868469,0.1135829471,0.0517132744,0.0824039745,0.3704981545,0.4532509049,9.6873411947
1520530309430885469,0.1158496155,0.0581370034,0.0778494016,0.3548647743,0.4616461054,9.7142144860
1520530309435902469,0.1168543325,0.0598951740,0.0743437766,0.3452442326,0.4664434164,9.7480056238
1520530309440918469,0.1183622235,0.0637005175,0.0681473208,0.3067620657,0.4508575880,9.7542061068
1520530309445932469,0.1186084337,0.0654736898,0.0589616321,0.2827107115,0.4748422697,9.7811461321
1520530309450950469,0.1148295972,0.0649178527,0.0484128968,0.2863184146,0.4856342525,9.8670991455
1520530309455966469,0.1143235379,0.0675634263,0.0397763694,0.3572699097,0.4532519351,9.8315758007
1520530309460982469,0.1140739209,0.0725336188,0.0335920729,0.3861315348,0.4628428107,9.8115290774
1520530309465997469,0.1098081802,0.0786575760,0.0312117790,0.4125880245,0.4688364523,9.8066171436
1520530309471013469,0.1078028547,0.0844939485,0.0277428778,0.3933469411,0.4904224785,9.8021348006
1520530309476030469,0.1030322699,0.0879908774,0.0269667849,0.4498676236,0.4352576170,9.8434756349
1520530309481046469,0.0962532232,0.0903098258,0.0305142678,0.4919574935,0.3932844241,9.8407825969
1520530309486062469,0.0894689389,0.0879629795,0.0353789107,0.4655010038,0.3812950803,9.8631325367
1520530309491078469,0.0811740468,0.0838686922,0.0396919237,0.4186008630,0.3729047501,9.9031101137
1520530309496093469,0.0763921907,0.0759877844,0.0439695025,0.4017649151,0.3201438827,9.9509733375
1520530309501110469,0.0648195033,0.0640255633,0.0479580137,0.3704981545,0.2757781222,10.0245360037
1520530309506126469,0.0532473882,0.0526468398,0.0516804252,0.3091672012,0.2541983713,10.0611804722
1520530309511142469,0.0431813529,0.0409816930,0.0537745379,0.2875209823,0.2601957592,10.0427910133
1520530309516157469,0.0290891301,0.0272840204,0.0526140058,0.2598619249,0.2506047900,10.0419074403
1520530309521174469,0.0185156162,0.0130005866,0.0530657688,0.2502413832,0.2721900669,10.0768443513
1520530309526190469,0.0091990826,-0.0001131747,0.0521713610,0.2730901698,0.2470063385,10.0045935862
1520530309531205469,-0.0008729313,-0.0143927694,0.0512694611,0.2490388155,0.2889781265,9.9583010023
1520530309536222469,-0.0109451608,-0.0272081573,0.0476732176,0.2598619249,0.2601979134,9.9094136748
1520530309541238469,-0.0179985544,-0.0397404487,0.0475906932,0.2322028675,0.2470095230,9.9399114967
1520530309546253469,-0.0258079105,-0.0531442753,0.0464207161,0.2610644926,0.2685918027,9.9221773679
1520530309551270469,-0.0298446205,-0.0656790275,0.0476853205,0.2538490864,0.2530035392,9.8873984810
1520530309556286469,-0.0338782489,-0.0752970206,0.0478899721,0.2610644926,0.2709900836,9.8396628085
1520530309561302469,-0.0343869585,-0.0784966198,0.0457020845,0.2466336801,0.2781860500,9.8142290861
1520530309566318469,-0.0386618025,-0.0776110282,0.0408468619,0.2346080030,0.2793861271,9.7515891938
1520530309571334469,-0.0381611297,-0.0749701598,0.0341022888,0.2682798989,0.2913749088,9.7338175995
1520530309576350469,-0.0391667994,-0.0717492983,0.0281766000,0.2971415240,0.2961692227,9.7509641601
1520530309581366469,-0.0379111324,-0.0691117767,0.0227833562,0.3079646335,0.3441339967,9.7415148894
1520530309586382469,-0.0351411606,-0.0615193989,0.0171545586,0.3127749043,0.3729129922,9.7658450281
1520530309591398469,-0.0348864197,-0.0550913585,0.0107098983,0.3296108523,0.3944962086,9.7621736773
1520530309596413469,-0.0333751022,-0.0507119871,0.0077644394,0.3548647743,0.4196761906,9.7874704820
1520530309601430469,-0.0311053132,-0.0431278190,0.0051125801,0.3332185554,0.3968942084,9.8062976937
1520530309606446469,-0.0328576266,-0.0370043341,0.0032687107,0.3981572119,0.4064822742,9.8219262813
1520530309611461469,-0.0290764025,-0.0303097543,0.0065593916,0.4570830299,0.4328587742,9.8062191367
1520530309616477469,-0.0242936330,-0.0256515587,0.0087504604,0.4871472227,0.4652332241,9.7698684756
1520530309621494469,-0.0232788562,-0.0221705760,0.0147272802,0.5208191186,0.4784211463,9.7625550075
1520530309626509469,-0.0192522767,-0.0213101442,0.0204079457,0.5232242541,0.5048020483,9.7311279852
1520530309631526469,-0.0147185714,-0.0184156512,0.0282676065,0.6013911554,0.5251813476,9.7175636943
1520530309636541469,-0.0074133184,-0.0096901994,0.0353549574,0.5520858792,0.5587611195,9.6575793744
1520530309641558469,-0.0008623658,-0.0041833845,0.0472890806,0.5184139832,0.6079284993,9.6299677182
1520530309646573469,0.0066947937,0.0019058648,0.0594963290,0.4931600612,0.6355106959,9.6243759098
1520530309651590469,0.0145051455,0.0100378180,0.0706364887,0.4859446550,0.6199224324,9.6662985239
1520530309656606469,0.0220638967,0.0202195625,0.0780050342,0.4546778944,0.5959420591,9.6805719696
1520530309661622469,0.0303725808,0.0260242786,0.0877737463,0.4005623473,0.5935479929,9.6543717249
1520530309666638469,0.0374260057,0.0338732931,0.0956665323,0.3729032900,0.5563767940,9.7255679719
1520530309671653469,0.0429661883,0.0399836077,0.0997611377,0.3187877429,0.5395930427,9.7435432295
1520530309676669469,0.0484994278,0.0440680708,0.0986998094,0.2574567895,0.5300046960,9.7755274289
1520530309681685469,0.0530240025,0.0478709536,0.0938504823,0.2129617841,0.4844408253,9.7597349355
1520530309686701469,0.0575464249,0.0513882794,0.0868345650,0.2009361070,0.4304804429,9.7889582052
1520530309691718469,0.0605601722,0.0534444496,0.0811630621,0.2081515133,0.4280816001,9.8214303442
1520530309696732469,0.0628207326,0.0581322548,0.0719958705,0.1708719142,0.4244870823,9.8427153002
1520530309701749469,0.0635689720,0.0607856050,0.0606515505,0.1468205599,0.3993070066,9.8836489958
1520530309706765469,0.0633188689,0.0645866172,0.0558110912,0.1420102891,0.4184936280,9.9069199857
1520530309711781469,0.0648250428,0.0666414682,0.0504129345,0.1792898882,0.4256855671,9.8809829459
1520530309716798469,0.0610520046,0.0669444877,0.0455523324,0.2009361070,0.4364761450,9.9249232011
1520530309721814469,0.0577838927,0.0678253741,0.0425890642,0.2045438101,0.4148913364,9.9260712780
1520530309726831469,0.0522518450,0.0660785430,0.0412332641,0.2153669196,0.4208861956,9.9422301012
1520530309731846469,0.0472234025,0.0634504710,0.0425753203,0.2225823258,0.4376735996,9.9351706364
1520530309736862469,0.0431997593,0.0605314083,0.0439132865,0.1913155653,0.4376760347,9.9296642481
1520530309741878469,0.0391749674,0.0549818721,0.0482072497,0.2081515133,0.4448695660,9.9260069294
1520530309746892469,0.0326339764,0.0473931165,0.0519492269,0.2213797581,0.4220848677,9.9177653835
1520530309751909469,0.0286077340,0.0412629965,0.0554271063,0.2273925967,0.4436689270,9.8874700673
1520530309756926469,0.0228263594,0.0380460327,0.0589304836,0.2490388155,0.4568577858,9.8872465136
1520530309761941469,0.0155389482,0.0348226506,0.0646010285,0.2538490864,0.4364720240,9.8604902612
1520530309766958469,0.0122670844,0.0283985277,0.0691574682,0.2454311124,0.4232821349,9.8152614451
1520530309771973469,0.0072365249,0.0222651002,0.0737193982,0.2394182738,0.4340748670,9.8397144694
1520530309776990469,0.0039643554,0.0164273886,0.0769275546,0.2261900290,0.4400715994,9.8444859541
1520530309782006469,0.0009477971,0.0140878466,0.0796208296,0.1804924559,0.4005035245,9.7938350004
1520530309787021469,-0.0043294352,0.0137929376,0.0801694995,0.1744796173,0.3993048524,9.7880839753
1520530309792038469,-0.0073477458,0.0129227016,0.0782746096,0.1576436693,0.4328820955,9.7707829453
1520530309797052469,-0.0076029101,0.0123500321,0.0744829876,0.1227692057,0.4256899691,9.7478865289
1520530309802070469,-0.0103723369,0.0114879073,0.0696116262,0.1251743411,0.4113000967,9.7257964157
1520530309807086469,-0.0133890989,0.0150030078,0.0623391647,0.1023255545,0.3909164890,9.6865257961
1520530309812101469,-0.0146487059,0.0167690335,0.0555911894,0.0590331169,0.4065086863,9.6869319767
1520530309817119469,-0.0156526152,0.0214475460,0.0494060701,0.0373868980,0.4005146701,9.6917970902
1520530309822134469,-0.0169027191,0.0302068003,0.0427114489,0.0614382523,0.3645385842,9.6648687583
1520530309827150469,-0.0196559976,0.0418771239,0.0368534965,0.0770716326,0.4017107197,9.6716532068
1520530309832167469,-0.0196432719,0.0552990229,0.0301921110,0.1035281222,0.4160983443,9.6585980800
1520530309837182469,-0.0208828260,0.0684137481,0.0292122999,0.1167563671,0.3921145055,9.6410605519
1520530309842198469,-0.0233813793,0.0806581980,0.0266048778,0.1275794765,0.4112999094,9.6479093606
1520530309847213469,-0.0223606983,0.0917297470,0.0272285799,0.1889104299,0.4100959923,9.6368542765
1520530309852229469,-0.0243666001,0.0955191435,0.0264495761,0.1756821850,0.3873133545,9.6695452803
1520530309857246469,-0.0258698650,0.0975524170,0.0286323052,0.1901129976,0.3741216859,9.7379841757
1520530309862260469,-0.0281283044,0.0978334458,0.0321558255,0.2033412424,0.4136922896,9.7924375977
1520530309867278469,-0.0308971236,0.0943350200,0.0324048283,0.2105566487,0.3957046213,9.8016820591
1520530309872293469,-0.0309071089,0.0876360896,0.0312715138,0.2370131384,0.4028974034,9.7979310999
1520530309877310469,-0.0324132396,0.0852883972,0.0372085391,0.2069489456,0.4148911491,9.8783999658
1520530309882326469,-0.0339272425,0.0782836514,0.0412161738,0.2502413832,0.4076929348,9.8617155844
1520530309887341469,-0.0351891939,0.0736180929,0.0422651217,0.2346080030,0.4088932928,9.8351372699
1520530309892358469,-0.0379555510,0.0712822915,0.0436052004,0.1660616433,0.4628599505,9.8008875192
1520530309897373469,-0.0382078652,0.0692366739,0.0457544727,0.1648590756,0.4472712186,9.7695365389
1520530309902390469,-0.0394632577,0.0706960180,0.0446857382,0.1889104299,0.4292822391,9.7135370681
1520530309907406469,-0.0402164054,0.0715713331,0.0441527158,0.1588462370,0.4053017721,9.6859616264
1520530309912421469,-0.0389651881,0.0686623507,0.0425048760,0.1432128568,0.4268875173,9.6826063121
1520530309917438469,-0.0402254184,0.0672107632,0.0403317270,0.1648590756,0.4017038825,9.7370409431
1520530309922453469,-0.0397289758,0.0643043992,0.0376031037,0.1335923151,0.3813209305,9.7176087061
1520530309927470469,-0.0377272062,0.0587725229,0.0362044019,0.1384025859,0.3573377474,9.7152609847
1520530309932486469,-0.0387410577,0.0564592637,0.0294248367,0.1119460962,0.3597380887,9.7457319001
1520530309937502469,-0.0379959978,0.0523911021,0.0253341249,0.1275794765,0.3405506244,9.7502470196
1520530309942518469,-0.0347368951,0.0486131244,0.0220526066,0.0854896066,0.3477487450,9.7204339378
1520530309947532469,-0.0352453772,0.0483397537,0.0152876696,0.0361843303,0.3309646192,9.7790374135
1520530309952549469,-0.0362543048,0.0483517432,0.0106902562,0.0325766272,0.3177743555,9.7732746717
1520530309957565469,-0.0360006615,0.0547834258,0.0028928664,0.0193483823,0.3201736666,9.7978061116
1520530309962581469,-0.0375097639,0.0577141627,-0.0035752039,0.0205509501,0.2901950623,9.7943372082
1520530309967597469,-0.0380140669,0.0603539088,-0.0100473642,0.0133355438,0.2889964839,9.7955707518
1520530309972614469,-0.0412866597,0.0603715681,-0.0170754901,0.0446023043,0.2782017849,9.8336276949
1520530309977630469,-0.0410412925,0.0589278557,-0.0219568984,0.0638433877,0.2865942693,9.8194865012
1520530309982646469,-0.0423079875,0.0536926400,-0.0257822228,0.1071358254,0.3141711273,9.8585511188
1520530309987662469,-0.0435706367,0.0507855867,-0.0285075790,0.0963127160,0.3021805660,9.8238038391
1520530309992678469,-0.0453354915,0.0467062426,-0.0288059810,0.1143512317,0.3033783015,9.8189785181
1520530309997693469,-0.0458460084,0.0408783551,-0.0288495093,0.1215666379,0.2997803183,9.8409925309
1520530310002710469,-0.0476165792,0.0338909932,-0.0313345094,0.1275794765,0.3009789904,9.8153656693
1520530310007725469,-0.0516489727,0.0263177908,-0.0330081174,0.1155537994,0.3009799270,9.8096720001
1520530310012741469,-0.0531588396,0.0225190031,-0.0292465746,0.1323897474,0.3105717392,9.8397145174
1520530310017757469,-0.0544207008,0.0187312404,-0.0295436870,0.1143512317,0.2638066676,9.8434221293
1520530310022774469,-0.0546732737,0.0184426712,-0.0306276269,0.0662485231,0.2650095544,9.7544040777
1520530310027789469,-0.0571835765,0.0210670611,-0.0316851355,0.0578305492,0.2458239632,9.7289375556
1520530310032806469,-0.0576840611,0.0231087412,-0.0324802782,0.0614382523,0.2302348567,9.7358905055
1520530310037821469,-0.0609479507,0.0266099030,-0.0346119009,0.0746664971,0.2146450010,9.6811561855
1520530310042838469,-0.0627003072,0.0330262293,-0.0369946390,0.0878947420,0.1966568644,9.6694235304
1520530310047853469,-0.0624414420,0.0382697924,-0.0364139984,0.0698562263,0.2074505331,9.6323999757
1520530310052870469,-0.0644494960,0.0417736318,-0.0393595925,0.0866921743,0.2062500814,9.5950486677
1520530310057886469,-0.0654543816,0.0426503053,-0.0404332399,0.0999204191,0.1774696810,9.5879751125
1520530310062901469,-0.0669616884,0.0438188948,-0.0417742767,0.0890973097,0.1966567707,9.6194396353
1520530310067918469,-0.0672116269,0.0435215844,-0.0396116659,0.1155537994,0.1846633059,9.6087345219
1520530310072934469,-0.0667137769,0.0414886455,-0.0420630740,0.1023255545,0.1966557404,9.5914194248
1520530310077950469,-0.0657153129,0.0365355024,-0.0421027333,0.1335923151,0.2086447095,9.5980762637
1520530310082966469,-0.0634563991,0.0330332183,-0.0396986978,0.1239717734,0.1798660886,9.6760616132
1520530310087982469,-0.0639601023,0.0301097065,-0.0362028986,0.1167563671,0.2530142164,9.6946548171
1520530310092998469,-0.0624555672,0.0269014252,-0.0348774234,0.1035281222,0.2710023530,9.7087117601
1520530310098014469,-0.0604466311,0.0248581506,-0.0332734434,0.1155537994,0.3441489823,9.7166583875
1520530310103030469,-0.0596889593,0.0245532213,-0.0281366946,0.1588462370,0.3897129466,9.7196790024
1520530310108046469,-0.0564178169,0.0239549782,-0.0219246526,0.1865052944,0.4484686732,9.7565410951
1520530310113061469,-0.0528966068,0.0227755214,-0.0162586152,0.2478362478,0.4640527220,9.7640639435
1520530310118078469,-0.0508814333,0.0215896465,-0.0084254104,0.3151800397,0.4772380217,9.7692063173
1520530310123094469,-0.0456006060,0.0198237392,-0.0011438109,0.3248005814,0.5240037489,9.7423377617
1520530310128109469,-0.0403175873,0.0165870692,0.0112670452,0.3067620657,0.5168103113,9.7529796492
1520530310133126469,-0.0352871415,0.0130618298,0.0225939613,0.3260031491,0.5503847446,9.7411381872
1520530310138141469,-0.0297572226,0.0069128698,0.0344410280,0.3187877429,0.5467878853,9.7191311905
1520530310143157469,-0.0239667684,0.0065873282,0.0479553651,0.2586593572,0.5192123385,9.6988247469
1520530310148173469,-0.0179251878,0.0074332506,0.0593137606,0.2442285447,0.4904340923,9.7350197343
1520530310153190469,-0.0111258335,0.0132424750,0.0671914518,0.2177720550,0.4904361528,9.7550336928
1520530310158205469,-0.0045798440,0.0181803610,0.0739807568,0.1889104299,0.4244856774,9.7762975190
1520530310163221469,0.0037211091,0.0228399350,0.0761652915,0.1480231276,0.3669301215,9.7744273312
1520530310168238469,0.0117653100,0.0242978229,0.0769731095,0.1432128568,0.3525408110,9.8000553505
1520530310173254469,0.0195568087,0.0263456658,0.0750803814,0.1396051536,0.3297574240,9.7873290997
1520530310178269469,0.0268401701,0.0257774068,0.0707336659,0.0818819034,0.2793980219,9.7728321832
1520530310183285469,0.0353770776,0.0228778355,0.0666373780,0.0975152837,0.2530157150,9.8377858044
1520530310188302469,0.0421551598,0.0211474837,0.0609299742,0.0806793357,0.2494196050,9.8251695997
1520530310193317469,0.0494352242,0.0191266727,0.0549488679,0.0638433877,0.2638106013,9.8288058703
1520530310198333469,0.0572195132,0.0179787553,0.0495145892,0.1035281222,0.2626083701,9.8249343409
1520530310203350469,0.0642522305,0.0159447341,0.0484037758,0.1396051536,0.2853892283,9.7862102213
1520530310208367469,0.0710372558,0.0162402338,0.0478523055,0.1504282631,0.3021763513,9.7640077699
1520530310213381469,0.0773152886,0.0150866267,0.0443146485,0.1155537994,0.3417507014,9.7608221964
1520530310218398469,0.0830944952,0.0121641194,0.0483398714,0.1708719142,0.3537377973,9.7567856386
1520530310223414469,0.0881211696,0.0104075833,0.0521048410,0.2261900290,0.3417420847,9.7725289147
1520530310228430469,0.0931474480,0.0083596627,0.0558675875,0.1925181330,0.3789180603,9.7588746794
1520530310233447469,0.1006896198,0.0089373727,0.0588340368,0.1636565079,0.4148945208,9.7335533535
1520530310238462469,0.1047094719,0.0063077461,0.0620531122,0.1672642110,0.4124959590,9.7544391682
1520530310243478469,0.1104910150,0.0068898659,0.0631290073,0.1732770496,0.4280843162,9.7717976009
1520530310248495469,0.1142639631,0.0057090507,0.0693356697,0.1588462370,0.4292845806,9.7823961878
1520530310253510469,0.1162737304,0.0024922252,0.0739067622,0.1552385339,0.4148951765,9.7510674483
1520530310258526469,0.1200467686,0.0021892058,0.0787673644,0.1865052944,0.4017021966,9.7612352751
1520530310263541469,0.1208030800,0.0021814884,0.0817419691,0.1756821850,0.3969064779,9.7543724342
1520530310268558469,0.1230653811,0.0010095521,0.0844343352,0.1131486640,0.3957122078,9.7143072281
1520530310273575469,0.1255775343,0.0007206090,0.0838863531,0.0939075805,0.3873197234,9.7470427251
1520530310278590469,0.1283384852,0.0010254598,0.0792841620,0.0878947420,0.3669348045,9.7169053864
1520530310283606469,0.1316044957,0.0024931320,0.0757721134,0.0794767680,0.3309612474,9.7205088338
1520530310288622469,0.1313560588,0.0054105210,0.0744420815,0.1432128568,0.3585365132,9.6873215403
1520530310293637469,0.1313605908,0.0089078637,0.0741982126,0.1624539402,0.3201625211,9.6592802233
1520530310298654469,0.1311180894,0.0147325421,0.0753253246,0.1203640702,0.3153692375,9.6689917293
1520530310303670469,0.1318711979,0.0156135469,0.0728956807,0.1107435285,0.3045777229,9.7109330762
1520530310308685469,0.1323694439,0.0138719925,0.0704464956,0.1372000182,0.2686014497,9.7397642439
1520530310313701469,0.1308552724,0.0095020908,0.0698748579,0.1323897474,0.2793940882,9.6991255017
1520530310318718469,0.1273324706,0.0065890524,0.0690475235,0.1335923151,0.3057750838,9.7513845491
1520530310323734469,0.1225527315,0.0022135001,0.0701052285,0.1516308308,0.3237607853,9.7721100244
1520530310328750469,0.1205377227,-0.0006989475,0.0692750938,0.1528333985,0.3273581129,9.8116077058
1520530310333766469,0.1185219689,-0.0030235271,0.0665555839,0.1311871796,0.3201649562,9.8187982765
1520530310338782469,0.1109771156,-0.0047631330,0.0622275128,0.1083383931,0.3465478251,9.8492106899
1520530310343797469,0.1044369283,-0.0073786840,0.0587025432,0.1119460962,0.3237638760,9.8143334736
1520530310348813469,0.0991551327,-0.0064876588,0.0516848203,0.0915024451,0.3285620300,9.8400949492
1520530310353830469,0.0931207187,-0.0038449796,0.0433291067,0.1167563671,0.3357549056,9.8537878544
1520530310358846469,0.0855796525,-0.0014993747,0.0368677915,0.0494125752,0.3441541336,9.8358408489
1520530310363861469,0.0797984700,0.0014296885,0.0304076555,0.0650459554,0.3693348649,9.8275291194
1520530310368879469,0.0699966357,0.0034786521,0.0255715932,0.0854896066,0.3465496046,9.8087580476
1520530310373894469,0.0599531350,0.0116422219,0.0224059578,0.0686536586,0.3681354435,9.7775229835
1520530310378910469,0.0531697876,0.0148535345,0.0191964625,0.0698562263,0.3789276136,9.7856357621
1520530310383926469,0.0463883770,0.0198146112,0.0154592139,0.0698562263,0.4161009667,9.7681673533
1520530310388942469,0.0375988614,0.0256454117,0.0130850979,0.1023255545,0.4496743698,9.7422514083
1520530310393957469,0.0285543970,0.0294393358,0.0096137034,0.0722613617,0.4472784304,9.7588163887
1520530310398974469,0.0227797185,0.0343957073,0.0077684092,0.1023255545,0.4556700719,9.7643262967
1520530310403991469,0.0157439707,0.0361470851,0.0056304488,0.0975152837,0.4316876381,9.7922879586
1520530310409005469,0.0051848526,0.0358654057,0.0005074561,0.1347948828,0.4184941900,9.8140186997
1520530310414021469,-0.0008456528,0.0387878145,-0.0035173002,0.0842870388,0.4172989833,9.8586729517
1520530310419038469,-0.0101440584,0.0396634242,-0.0053871834,0.0963127160,0.3933152382,9.8794978791
1520530310424054469,-0.0176879473,0.0373352218,-0.0075553336,0.0963127160,0.3837221148,9.8969393931
1520530310429070469,-0.0227173934,0.0370520662,-0.0113358647,0.0963127160,0.3813238339,9.8713745648
1520530310434086469,-0.0287504118,0.0361777349,-0.0121429703,0.1359974505,0.3945112878,9.8837590187
1520530310439102469,-0.0342813618,0.0344272618,-0.0121460409,0.1275794765,0.4089016285,9.8512868913
1520530310444117469,-0.0398104653,0.0335487569,-0.0113308046,0.1095409608,0.4232927185,9.8200705483
1520530310449133469,-0.0443351223,0.0317950353,-0.0099830126,0.1335923151,0.4316848283,9.8360982772
1520530310454150469,-0.0470993663,0.0315011109,-0.0094390099,0.1660616433,0.4556651079,9.8078673990
1520530310459166469,-0.0493633414,0.0306297134,-0.0107942081,0.1456179922,0.4292856108,9.7906599511
1520530310464181469,-0.0533874707,0.0265414704,-0.0081124048,0.1251743411,0.5036339093,9.8140293171
1520530310469198469,-0.0576570065,0.0256532598,-0.0035118595,0.1143512317,0.4736562417,9.8269474796
1520530310474214469,-0.0571593328,0.0233282079,-0.0056949448,0.0963127160,0.4808524891,9.8236296075
1520530310479230469,-0.0576634281,0.0215767901,-0.0046251663,0.0987178514,0.5168265145,9.8084632458
1520530310484246469,-0.0579169263,0.0201204975,-0.0049063609,0.0301714918,0.5144335722,9.7812413178
1520530310489262469,-0.0591755296,0.0195416067,-0.0065317488,0.0277663563,0.5060397766,9.7766243375
1520530310494277469,-0.0584231228,0.0207176382,-0.0103118992,0.0229560855,0.4760616407,9.7395117847
1520530310499294469,-0.0591754276,0.0248098380,-0.0151492020,0.0662485231,0.4688634264,9.7414217066
1520530310504310469,-0.0569123699,0.0274404692,-0.0178388537,0.0662485231,0.4688634264,9.7449081384
1520530310509325469,-0.0538951531,0.0297778259,-0.0197204909,0.0686536586,0.4748589412,9.7355817300
1520530310514341469,-0.0528856061,0.0315199710,-0.0172741063,0.0782742003,0.4808538940,9.7226986594
1520530310519358469,-0.0503691012,0.0329727791,-0.0153738368,0.0638433877,0.4340885414,9.7252090122
1520530310524373469,-0.0488559020,0.0350043204,-0.0121145248,0.1059332577,0.4424792463,9.7050347026
1520530310529389469,-0.0483540492,0.0355923854,-0.0140048333,0.1071358254,0.4388817313,9.7073507935
1520530310534406469,-0.0428269765,0.0323798520,-0.0105224585,0.1119460962,0.4304873737,9.7305550377
1520530310539422469,-0.0410712288,0.0297573520,-0.0102751875,0.1359974505,0.4436760452,9.7000923310
1520530310544437469,-0.0385617179,0.0265501930,-0.0092221251,0.1107435285,0.4101020802,9.7201273259
1520530310549454469,-0.0363106685,0.0213178125,-0.0135950754,0.0806793357,0.4041087196,9.7297229507
1520530310554470469,-0.0335474399,0.0195662178,-0.0119902725,0.0638433877,0.4137031542,9.7182560272
1520530310559486469,-0.0305401691,0.0134483242,-0.0120425580,0.0927050128,0.4256923106,9.7040176850
1520530310564501469,-0.0277788301,0.0111176026,-0.0117949307,0.0542228460,0.3945176567,9.6928012101
1520530310569518469,-0.0257747749,0.0064562378,-0.0118342339,0.0229560855,0.3669398621,9.7419424824
1520530310574534469,-0.0202442640,0.0082081678,-0.0123722551,0.0746664971,0.3945160645,9.7007372318
1520530310579550469,-0.0164711316,0.0102464226,-0.0112815108,0.1408077214,0.4136971600,9.6454539784
1520530310584567469,-0.0139599546,0.0061556405,-0.0067180210,0.0602356846,0.4508767883,9.6694448468
1520530310589582469,-0.0101894686,0.0038122009,-0.0016024345,0.0686536586,0.4280924646,9.7112223112
1520530310594597469,-0.0054180957,-0.0005654375,0.0016019023,0.1083383931,0.4232928122,9.7224621612
1520530310599614469,-0.0006392036,-0.0008702485,0.0072722753,0.0939075805,0.4436793233,9.6528541059
1520530310604630469,0.0026366903,0.0020281228,0.0135109943,0.0746664971,0.4460791027,9.6681469195
1520530310609646469,0.0074184875,0.0043479579,0.0183897374,0.0602356846,0.4676647542,9.6415370211
1520530310614661469,0.0132030611,0.0052127211,0.0227144063,0.0674510909,0.5036384050,9.6251616953
1520530310619678469,0.0187359439,0.0072494798,0.0246135213,0.0313740595,0.4472816149,9.6220813740
1520530310624694469,0.0247712048,0.0092871638,0.0262411569,0.0325766272,0.4556755042,9.6197371957
1520530310629710469,0.0287961652,0.0122018560,0.0265264661,0.0085252729,0.4784610454,9.6199490794
1520530310634726469,0.0335726934,0.0145391734,0.0249121076,0.0409946012,0.4724628145,9.6103417379
1520530310639742469,0.0388524348,0.0171673439,0.0235695847,0.0325766272,0.4556755042,9.6174129078
1520530310644757469,0.0426235912,0.0192121546,0.0222254160,0.0301714918,0.4292946022,9.6325699148
1520530310649775469,0.0476536137,0.0215422862,0.0233160498,0.0193483823,0.4256980239,9.6024630255
1520530310654790469,0.0486607888,0.0229996026,0.0233252983,0.0277663563,0.4244982278,9.6209765627
1520530310659805469,0.0509289901,0.0279547541,0.0230883444,-0.0143235136,0.4173066634,9.6516089985
1520530310664821469,0.0534389910,0.0273802539,0.0203737720,0.0145381115,0.3561482539,9.6746305925
1520530310669839469,0.0559504817,0.0256300176,0.0214379499,0.0121329761,0.3753346880,9.6932295965
1520530310674854469,0.0582090466,0.0230069861,0.0219548334,0.0433997366,0.3609425678,9.7022364487
1520530310679870469,0.0607217683,0.0218380620,0.0235645492,0.0361843303,0.3861250786,9.7290114339
1520530310684887469,0.0607231718,0.0212480086,0.0262655620,-0.0047029719,0.4173059141,9.7189197074
1520530310689903469,0.0607196081,0.0186255478,0.0262455542,0.0361843303,0.4448829594,9.7045491132
1520530310694917469,0.0619796620,0.0197850223,0.0286870260,0.0013098666,0.4472839564,9.7037240772
1520530310699935469,0.0622347832,0.0206505332,0.0319397793,0.0229560855,0.4916504662,9.7557665986
1520530310704950469,0.0649981490,0.0209473713,0.0303135930,-0.0299568939,0.4856588851,9.7342067327
1520530310709966469,0.0655004840,0.0212411381,0.0295032450,-0.0443877064,0.5120410983,9.7552400590
1520530310714981469,0.0662576815,0.0241574640,0.0287124380,-0.0263491907,0.4736671999,9.7551019021
1520530310719998469,0.0672639001,0.0291303340,0.0217141702,-0.0335645970,0.4640746384,9.7470464794
1520530310725014469,0.0680146328,0.0282630317,0.0192711878,-0.0251466230,0.4748662466,9.8259798089
1520530310730030469,0.0692692844,0.0288550342,0.0160267496,-0.0407800033,0.5072442556,9.8539918573
1520530310735047469,0.0692641447,0.0279939923,0.0111502542,-0.0528056804,0.4748684008,9.8181140175
1520530310740063469,0.0712711481,0.0256644322,0.0108581898,-0.0455902742,0.4856601027,9.7820068005
1520530310745077469,0.0677484796,0.0233363482,0.0092236639,-0.0227414876,0.4796626210,9.8375731609
1520530310750095469,0.0669855661,0.0175120044,0.0078278729,0.0037150021,0.5024442285,9.8001048257
1520530310755109469,0.0672308354,0.0122635392,0.0091401201,0.0097278406,0.5204308666,9.8139744878
1520530310760126469,0.0654641340,0.0073122268,0.0080234111,0.0061201375,0.5300242709,9.7721630659
1520530310765141469,0.0634465690,0.0008958806,0.0098720583,0.0253612209,0.5659969851,9.7998321597
1520530310770158469,0.0626854159,-0.0034708121,0.0082168368,-0.0047029719,0.5695967479,9.8105805737
1520530310775174469,0.0624293616,-0.0084310034,0.0106144241,0.0025124344,0.5576047817,9.8291163400
1520530310780191469,0.0594085419,-0.0116345010,0.0095133873,-0.0215389199,0.5683989187,9.8037727501
1520530310785207469,0.0571429790,-0.0151349151,0.0105730944,-0.0155260813,0.5731950121,9.8060338354
1520530310790223469,0.0531184616,-0.0165875856,0.0084050793,-0.0215389199,0.5576066549,9.8165668577
1520530310795237469,0.0511039428,-0.0168673745,0.0038073098,-0.0227414876,0.5336239401,9.8421691165
1520530310800253469,0.0493381197,-0.0218216006,0.0037727844,-0.0491979773,0.5348251410,9.8598576177
1520530310805271469,0.0435522249,-0.0241454717,0.0002486377,-0.0107158105,0.5528092502,9.8559790840
1520530310810287469,0.0405300879,-0.0273445987,-0.0024756745,0.0494125752,0.5623976906,9.8902487950
1520530310815301469,0.0370027501,-0.0352184583,-0.0006353424,0.1119460962,0.5635919607,9.9326382891
1520530310820318469,0.0324714049,-0.0422185582,0.0012135259,0.1191615025,0.5995656115,9.9290465467
1520530310825335469,0.0259301552,-0.0480502654,0.0017222907,0.1071358254,0.5935708460,9.8931429814
1520530310830349469,0.0203951985,-0.0538852210,0.0035819182,0.0662485231,0.6295482431,9.8807222896
1520530310835366469,0.0148638917,-0.0576833986,0.0065392909,0.0458048720,0.6079653077,9.8646723083
1520530310840382469,0.0075746418,-0.0588517919,0.0065439335,0.0301714918,0.6079665253,9.8671487620
1520530310845397469,0.0035523669,-0.0591411096,0.0051964485,0.0361843303,0.6031694953,9.8554734745
1520530310850414469,-0.0034886146,-0.0605920478,0.0019518506,0.0229560855,0.5779885766,9.8800318093
1520530310855430469,-0.0065082856,-0.0611650719,-0.0021051833,-0.0179312168,0.5444158292,9.8270039008
1520530310860446469,-0.0115379513,-0.0614474990,-0.0061562604,0.0397920335,0.5156319634,9.8241458343
1520530310865461469,-0.0168170693,-0.0608580564,-0.0093885638,-0.0203363522,0.5156366464,9.7898667685
1520530310870478469,-0.0188270600,-0.0591039810,-0.0118064046,0.0349817626,0.5204288997,9.6963521422
1520530310875494469,-0.0165622460,-0.0564791773,-0.0123316891,0.0446023043,0.4808565165,9.7044320977
1520530310880511469,-0.0200808648,-0.0550156203,-0.0152900444,0.0037150021,0.4400889265,9.6874376678
1520530310885526469,-0.0230931458,-0.0506372927,-0.0184976482,0.0361843303,0.4161035892,9.6336863962
1520530310890543469,-0.0233394265,-0.0459708681,-0.0200848875,0.0133355438,0.3933217007,9.6292824339
1520530310895557469,-0.0225800218,-0.0386713909,-0.0254416284,-0.0215389199,0.3561510637,9.6064152509
1520530310900574469,-0.0203116793,-0.0302043280,-0.0313333692,-0.0504005450,0.3561533116,9.6032097404
1520530310905590469,-0.0208130342,-0.0252327772,-0.0380582907,-0.0528056804,0.3405646734,9.6009240640
1520530310910606469,-0.0198019778,-0.0173489757,-0.0439521440,-0.0311594616,0.3393638471,9.6088495500
1520530310915621469,-0.0200491759,-0.0109233175,-0.0495842332,-0.0143235136,0.3537522209,9.6005366395
1520530310920637469,-0.0215524682,-0.0027432885,-0.0576355633,-0.0059055396,0.3597472674,9.6364753200
1520530310925654469,-0.0212949555,0.0057244436,-0.0640646621,0.0157406792,0.3525507390,9.6374337890
1520530310930670469,-0.0235502154,0.0127269842,-0.0677947501,0.0710587940,0.3645378349,9.6485051025
1520530310935686469,-0.0280680469,0.0182680739,-0.0701790235,0.0626408200,0.4125041074,9.6287838171
1520530310940702469,-0.0300729372,0.0226395110,-0.0706830352,0.1251743411,0.4352829052,9.6606929675
1520530310945718469,-0.0325788021,0.0264199694,-0.0682145548,0.0915024451,0.4592683361,9.6981859288
1520530310950734469,-0.0360858165,0.0325281965,-0.0646442392,0.0770716326,0.4448797749,9.7227454446
1520530310955750469,-0.0393413125,0.0386357936,-0.0608038445,0.1047306900,0.4952415186,9.7142921084
1520530310960766469,-0.0443513722,0.0467765658,-0.0547802539,0.1227692057,0.5468031519,9.7349848421
1520530310965781469,-0.0470979430,0.0546195552,-0.0460576280,0.1913155653,0.5791746047,9.6668817324
1520530310970797469,-0.0488348728,0.0665459640,-0.0386584753,0.1672642110,0.6103541289,9.6333832560
1520530310975814469,-0.0500773436,0.0726456076,-0.0315752636,0.0662485231,0.5587989581,9.5925795800
1520530310980830469,-0.0515713681,0.0819656796,-0.0301485950,0.0229560855,0.5156332746,9.6511502559
1520530310985846469,-0.0555839204,0.0886688622,-0.0311721801,0.0205509501,0.4712652663,9.7279184326
1520530310990861469,-0.0581006017,0.0869239410,-0.0328041267,0.1167563671,0.4328852799,9.7583973337
1520530310995877469,-0.0553395685,0.0851796306,-0.0339047828,0.0686536586,0.4556726944,9.7809240536
1520530311000895469,-0.0558552721,0.0773200642,-0.0369398775,0.0385894657,0.4604715976,9.8079413136
1520530311005911469,-0.0568676810,0.0726604317,-0.0380557635,0.1155537994,0.4532707608,9.8002263423
1520530311010926469,-0.0561140041,0.0726614555,-0.0383277096,0.0975152837,0.4364841998,9.7876347054
1520530311015942469,-0.0545995307,0.0749814675,-0.0339839909,0.0578305492,0.4448812735,9.7822020672
1520530311020958469,-0.0518364746,0.0744012383,-0.0345346628,0.0313740595,0.4376884915,9.7476022758
1520530311025974469,-0.0490799695,0.0706230637,-0.0378152477,0.0674510909,0.3969149073,9.7368315861
1520530311030990469,-0.0443012498,0.0714896183,-0.0343003495,0.0686536586,0.4173002008,9.7205299869
1520530311036006469,-0.0400251709,0.0726488174,-0.0313233866,0.0494125752,0.4640681759,9.7009152163
1520530311041022469,-0.0352523867,0.0706080826,-0.0302656324,0.0830844711,0.4796543789,9.7214908645
1520530311046038469,-0.0292217911,0.0685634696,-0.0275869364,0.0758690649,0.5204257153,9.7343049208
1520530311051055469,-0.0226911971,0.0633079962,-0.0227692606,0.1492256953,0.5695847594,9.6638143322
1520530311056071469,-0.0141469586,0.0597987038,-0.0168597965,0.1552385339,0.6475284186,9.6962198306
1520530311061086469,-0.0053536636,0.0551261572,-0.0117713291,0.1672642110,0.6631163075,9.7425733368
1520530311066102469,0.0019271730,0.0463707226,-0.0056290011,0.1828975913,0.6942927409,9.7296071847
1520530311071119469,0.0107139130,0.0370367519,-0.0008466490,0.1877078622,0.6835001025,9.7632730632
1520530311076135469,0.0207552496,0.0241971896,0.0074237891,0.2117592164,0.7206715824,9.7874077356
1520530311081151469,0.0318027068,0.0125257445,0.0148896150,0.2430259770,0.7578425004,9.7870671546
1520530311086165469,0.0420971457,0.0008510903,0.0234390246,0.2406208415,0.7866220579,9.7649817655
1520530311091183469,0.0523872329,-0.0125653152,0.0295401826,0.2490388155,0.7782274193,9.8020966220
1520530311096198469,0.0609249596,-0.0210288729,0.0356824001,0.2225823258,0.7746320585,9.7930604896
1520530311101214469,0.0712218252,-0.0283211043,0.0399364217,0.1937207007,0.7602446213,9.7271132377
1520530311106230469,0.0850367020,-0.0344405918,0.0420284343,0.1877078622,0.7206734556,9.7434803665
1520530311111247469,0.0950874633,-0.0367742857,0.0444268937,0.2057463779,0.6763038551,9.7758880869
1520530311116262469,0.1056397638,-0.0408604604,0.0484343566,0.2129617841,0.6259393953,9.7131111953
1520530311121279469,0.1171947937,-0.0475723442,0.0537726743,0.2273925967,0.6259382714,9.6943764314
1520530311126295469,0.1297573946,-0.0525355270,0.0591224636,0.2622670604,0.6439226616,9.7056408842
1520530311131311469,0.1430749035,-0.0569163738,0.0647458448,0.2923312532,0.6487168818,9.6693171178
1520530311136327469,0.1556360068,-0.0636307775,0.0711644792,0.2550516541,0.6523172065,9.6452714435
1520530311141343469,0.1684520158,-0.0680154634,0.0781415233,0.1961258361,0.6319364087,9.6342434305
1520530311146357469,0.1815161167,-0.0729748071,0.0821376497,0.1251743411,0.6535264622,9.6639665796
1520530311151374469,0.1925723360,-0.0756016770,0.0853436568,0.0662485231,0.5815826262,9.6553131361
1520530311156390469,0.2056359586,-0.0788032440,0.0858360251,0.0602356846,0.5743882519,9.6797837004
1520530311161406469,0.2169458133,-0.0779253883,0.0860922377,0.0650459554,0.5851801411,9.6576456210
1520530311166422469,0.2292580015,-0.0799646263,0.0876770820,0.0770716326,0.5791835024,9.6447508337
1520530311171438469,0.2398100472,-0.0808302742,0.0860275350,0.0710587940,0.5360149154,9.6587971826
1520530311176454469,0.2496114895,-0.0817071439,0.0884375766,0.1023255545,0.5611944292,9.6329011280
1520530311181470469,0.2556432259,-0.0840482405,0.0930078708,0.1287820442,0.5803786154,9.6419220590
1520530311186486469,0.2644337099,-0.0890041589,0.0951181102,0.1227692057,0.5827773646,9.6652211247
1520530311191503469,0.2687090440,-0.0872570917,0.0962056980,0.1083383931,0.5803802076,9.6653639240
1520530311196518469,0.2734897395,-0.0863970930,0.1021555092,0.0915024451,0.5839789401,9.7015507494
1520530311201534469,0.2767538996,-0.0872648676,0.1002489513,0.0782742003,0.6007679363,9.7074738540
1520530311206550469,0.2780118051,-0.0849274717,0.0981000352,0.0782742003,0.5887765321,9.7330527144
1520530311211566469,0.2757499000,-0.0834641508,0.0954098922,0.0277663563,0.5480096914,9.7603133953
1520530311216581469,0.2699711757,-0.0808359418,0.0924646297,-0.0071081073,0.5276270204,9.8025099030
1520530311221598469,0.2659492144,-0.0787847137,0.0876178328,-0.0275517585,0.5348234551,9.8189718883
1520530311226614469,0.2576581212,-0.0744033546,0.0825262089,-0.0323620293,0.5228324255,9.8318139854
1520530311231631469,0.2501188584,-0.0708929400,0.0763443320,-0.0479954096,0.5216345027,9.8180215930
1520530311236647469,0.2413221370,-0.0667944212,0.0680048677,-0.0167286490,0.5312251909,9.7979514596
1520530311241663469,0.2317823787,-0.0574636596,0.0643060994,-0.0648313576,0.5180383927,9.8135403960
1520530311246677469,0.2212385346,-0.0437464985,0.0546905345,-0.1045160921,0.5408251515,9.7639322554
1520530311251694469,0.2099391631,-0.0323658079,0.0469524064,-0.0985032535,0.5396255428,9.7813070588
1520530311256708469,0.1956163334,-0.0256433522,0.0372904884,-0.0335645970,0.5108411150,9.7772166180
1520530311261726469,0.1820522812,-0.0163025110,0.0292704533,-0.0215389199,0.5024461954,9.7875670484
1520530311266742469,0.1725042587,-0.0104567088,0.0212162736,-0.0287543262,0.5468149530,9.8596469384
1520530311271758469,0.1579345250,-0.0022854417,0.0145419425,-0.0179312168,0.5468141101,9.9199730785
1520530311276774469,0.1421095242,0.0050031668,0.0108392807,0.0001072989,0.6043714455,9.9360113897
1520530311281789469,0.1270338958,0.0117216850,0.0025314923,-0.0504005450,0.6787220855,9.9166740558
1520530311286807469,0.1107066972,0.0207649596,-0.0035918107,0.0277663563,0.7374738783,9.9704766954
1520530311291823469,0.0961382808,0.0289318561,-0.0086428664,0.0494125752,0.7722472647,9.9806913891
1520530311296837469,0.0815665673,0.0356462006,-0.0153283128,0.0349817626,0.8202140056,10.0423787058
1520530311301854469,0.0662385305,0.0379778269,-0.0177169711,0.0409946012,0.8250100990,10.0643962383
1520530311306870469,0.0491436670,0.0377001435,-0.0252627421,0.0710587940,0.8381983021,10.0559557415
1520530311311886469,0.0333025298,0.0368467392,-0.0352502059,0.0554254137,0.8513900644,10.0502843247
1520530311316902469,0.0207285362,0.0342375664,-0.0420105249,0.1203640702,0.8837617982,10.0554313992
1520530311321919469,0.0043773604,0.0257984979,-0.0485377589,0.1263769088,0.9065449979,10.0367563533
1520530311326934469,-0.0107119111,0.0208543506,-0.0542290118,0.1023255545,0.9305296796,9.9986163171
1520530311331949469,-0.0215271697,0.0161981626,-0.0580321546,0.1059332577,0.9281311177,10.0276371395
1520530311336967469,-0.0358559977,0.0129887777,-0.0585710971,0.1107435285,0.9569101133,10.0542915661
1520530311341983469,-0.0481778183,0.0089133112,-0.0618259016,0.0999204191,0.9449195520,10.0241928621
1520530311346998469,-0.0622587346,0.0033736770,-0.0626536414,0.1263769088,0.9497140531,10.0053363703
1520530311352014469,-0.0748319912,-0.0027503209,-0.0626769900,0.0987178514,0.9629067520,9.9730526931
1520530311357031469,-0.0856383702,-0.0036308934,-0.0618519525,0.0578305492,0.9749013407,9.9397367970
1520530311362046469,-0.0974484899,-0.0024677974,-0.0626327618,-0.0167286490,0.9413312157,10.0125481771
1520530311367061469,-0.1062464972,-0.0030481849,-0.0647852399,0.0325766272,0.9197428480,10.0086028861
1520530311372078469,-0.1193221672,-0.0059533097,-0.0699235731,0.0265637886,0.9053536313,9.9877568522
1520530311377095469,-0.1326475130,-0.0094493147,-0.0720898810,0.0842870388,0.9173405398,10.0290204985
1520530311382111469,-0.1409499206,-0.0161529510,-0.0726667019,0.1167563671,0.9353251173,10.0565783768
1520530311387127469,-0.1525131873,-0.0190727821,-0.0721263717,0.1408077214,0.9329249633,10.0412387429
1520530311392143469,-0.1620654086,-0.0234574894,-0.0683543399,0.1660616433,0.9161350305,9.9956856933
1520530311397158469,-0.1728764607,-0.0313473160,-0.0616306467,0.1287820442,0.9245319169,9.9762839174
1520530311402175469,-0.1821834991,-0.0403948056,-0.0576241052,0.1263769088,0.9017484362,9.9647081054
1520530311407191469,-0.1947541643,-0.0462347033,-0.0549397717,0.1155537994,0.9089441217,9.9671307228
1520530311412205469,-0.2030465945,-0.0491663662,-0.0495356828,0.1167563671,0.8465887260,9.9358019367
1520530311417223469,-0.2103392787,-0.0538357444,-0.0479344418,0.0939075805,0.8298025396,9.8314477476
1520530311422239469,-0.2156171264,-0.0544213095,-0.0476585409,0.0674510909,0.7926312470,9.8154714930
1520530311427255469,-0.2213971759,-0.0547156869,-0.0473794835,0.0698562263,0.7506611449,9.8201375856
1520530311432271469,-0.2211438111,-0.0538443486,-0.0462910974,0.0530202783,0.7506624561,9.7924100015
1520530311437287469,-0.2218981897,-0.0535503457,-0.0473696577,0.0770716326,0.7170846511,9.7492093155
1520530311442302469,-0.2213948002,-0.0529673797,-0.0473661450,0.0927050128,0.6990963271,9.7339668185
1520530311447318469,-0.2158609491,-0.0500557390,-0.0457309066,0.1023255545,0.7254766672,9.7106045735
1520530311452334469,-0.2100765479,-0.0480196103,-0.0435617125,0.1492256953,0.7554515250,9.7147674186
1520530311457351469,-0.2047927215,-0.0448195973,-0.0408416008,0.1432128568,0.7746382401,9.6694836202
1520530311462366469,-0.1969968320,-0.0427863230,-0.0373234110,0.1612513725,0.7758359756,9.5891189422
1520530311467382469,-0.1856828412,-0.0387025092,-0.0373132903,0.1576436693,0.7590482907,9.5694139809
1520530311472399469,-0.1736096732,-0.0302454467,-0.0380828613,0.1396051536,0.7194780616,9.5591688494
1520530311477414469,-0.1600326757,-0.0261651173,-0.0364536658,0.1071358254,0.7146840287,9.5385709721
1520530311482430469,-0.1446986093,-0.0232481800,-0.0353777214,0.1071358254,0.6595235692,9.5351383298
1520530311487447469,-0.1291104685,-0.0168279740,-0.0367104799,0.0878947420,0.5839792211,9.4982106726
1520530311492463469,-0.1145329762,-0.0136097495,-0.0394185548,0.0746664971,0.5947725152,9.4588160097
1520530311497477469,-0.0996918241,-0.0019441889,-0.0409804435,0.0746664971,0.5875776727,9.4774173290
1520530311502494469,-0.0830984879,0.0044764109,-0.0423150688,0.1492256953,0.5539959339,9.4337250307
1520530311507510469,-0.0685170792,0.0109013221,-0.0455397816,0.1347948828,0.5384082323,9.4547992839
1520530311512527469,-0.0521743440,0.0155633183,-0.0430996362,0.1203640702,0.5456041988,9.4909591912
1520530311517543469,-0.0373401937,0.0196419547,-0.0406611366,0.1372000182,0.5527977301,9.5558683658
1520530311522558469,-0.0230090842,0.0222583725,-0.0363389978,0.1949232684,0.5779751833,9.5494712472
1520530311527574469,-0.0094306871,0.0242851700,-0.0295849918,0.2117592164,0.6079523826,9.4946573771
1520530311532590469,0.0036393062,0.0225259570,-0.0236705902,0.1865052944,0.6127509112,9.5181413850
1520530311537606469,0.0162107437,0.0216312311,-0.0142314893,0.1624539402,0.6355364524,9.5811090422
1520530311542622469,0.0267673566,0.0210431276,-0.0107384412,0.1347948828,0.6427334491,9.5534797875
1520530311547637469,0.0378307033,0.0236611792,-0.0074924185,0.1420102891,0.6559234318,9.5778017175
1520530311552654469,0.0496439397,0.0221950438,-0.0023850979,0.1660616433,0.6547224182,9.6008116648
1520530311557670469,0.0561799870,0.0201411581,0.0038097613,0.1408077214,0.6643175085,9.5859402449
1520530311562686469,0.0632177107,0.0183832243,0.0083826348,0.1408077214,0.6595209468,9.5917556420
1520530311567703469,0.0722674519,0.0174987749,0.0134995355,0.1444154245,0.6691137892,9.6602776654
1520530311572718469,0.0757905556,0.0183619236,0.0180989508,0.1600488048,0.6966928013,9.6798550521
1520530311577733469,0.0810690581,0.0174818248,0.0210584853,0.1299846119,0.6811063173,9.6394878415
1520530311582751469,0.0868501152,0.0168947644,0.0234782175,0.0951101483,0.6655202080,9.6886525356
1520530311587767469,0.0906192016,0.0166048567,0.0234689936,0.1143512317,0.6799083945,9.7093698138
1520530311592782469,0.0928754378,0.0134041551,0.0220876097,0.1035281222,0.6643204119,9.7013553531
1520530311597797469,0.0963924335,0.0125313799,0.0220744063,0.0902998774,0.7050922166,9.6526343051
1520530311602814469,0.0971403906,0.0081609074,0.0220396598,0.1552385339,0.7074854398,9.6822156362
1520530311607831469,0.0991469510,0.0043693256,0.0236303013,0.1492256953,0.7038884868,9.6962233969
1520530311612845469,0.1003978193,0.0023395958,0.0200953094,0.1504282631,0.6966935506,9.6927322760
1520530311617863469,0.1019034992,0.0002983095,0.0208885852,0.1480231276,0.7494559166,9.6892178034
1520530311622879469,0.1024007298,-0.0034887640,0.0205882057,0.2057463779,0.7398582975,9.7374753615
1520530311627895469,0.1024038975,-0.0011576878,0.0206059904,0.1708719142,0.6966919584,9.7622619273
1520530311632911469,0.1016477154,-0.0020284946,0.0192479919,0.1516308308,0.7278711080,9.7473109340
1520530311637927469,0.1021475453,-0.0026045108,0.0168076992,0.1816950236,0.7470550132,9.7295674389
1520530311642943469,0.1011405466,-0.0037697143,0.0165301278,0.1841001590,0.7314660004,9.7574506851
1520530311647958469,0.1006337737,-0.0052195496,0.0138144869,0.1456179922,0.7302698571,9.7845557272
1520530311652975469,0.0968644677,-0.0049289134,0.0135531649,0.1612513725,0.7194763757,9.7890626613
1520530311657991469,0.0940962640,-0.0081366831,0.0140749367,0.1901129976,0.7278681108,9.8213135853
1520530311663005469,0.0903263504,-0.0052097461,0.0086932505,0.1444154245,0.7542527592,9.8124355003
1520530311668023469,0.0852993192,-0.0055009144,0.0078887242,0.1552385339,0.7290699674,9.7833011121
1520530311673038469,0.0795177761,-0.0060830342,0.0068128291,0.1540359662,0.6942949888,9.8054274631
1520530311678055469,0.0767505878,-0.0072452847,0.0051857953,0.1804924559,0.7074834729,9.8063192331
1520530311683071469,0.0714696625,-0.0092841303,0.0040978513,0.2273925967,0.6763021692,9.8093795706
1520530311688086469,0.0639273535,-0.0119102731,0.0043623912,0.1901129976,0.6787033535,9.8724958622
1520530311693103469,0.0568811304,-0.0194904844,0.0048587510,0.1901129976,0.7230715491,9.8538582934
1520530311698119469,0.0505916186,-0.0253235501,0.0059081410,0.2370131384,0.7338601602,9.8847691589
1520530311703135469,0.0422962913,-0.0279529020,0.0072562645,0.2033412424,0.7446550465,9.8920592401
1520530311708150469,0.0317325902,-0.0343660399,0.0066858672,0.1540359662,0.7662434142,9.9053016828
1520530311713166469,0.0224336514,-0.0358302476,0.0080447501,0.1877078622,0.7710373534,9.9177528474
1520530311718183469,0.0138907693,-0.0340816457,0.0067212277,0.1877078622,0.7986175831,9.9421309756
1520530311723199469,0.0025835138,-0.0317484441,0.0043251018,0.1624539402,0.8058143925,9.9481804855
1520530311728215469,-0.0079705038,-0.0294127619,0.0011159382,0.1540359662,0.8513823842,9.9633258574
1520530311733231469,-0.0167630617,-0.0282550403,0.0027644412,0.1672642110,0.8681693199,9.9445864278
1520530311738247469,-0.0273167736,-0.0265057692,0.0009035608,0.1660616433,0.8597754306,9.9736599171
1520530311743262469,-0.0378681998,-0.0238859868,0.0004020792,0.2129617841,0.8321915481,9.9418524279
1520530311748279469,-0.0466617653,-0.0218468273,-0.0006482075,0.1816950236,0.8501810896,9.8898427414
1520530311753294469,-0.0541988836,-0.0209778127,0.0001841011,0.1636565079,0.8273988265,9.9039862621
1520530311758310469,-0.0627450628,-0.0206817629,-0.0027738120,0.1564411016,0.7818320524,9.9099116471
1520530311763326469,-0.0695281475,-0.0177640200,-0.0051738927,0.1420102891,0.7278718572,9.9089425841
1520530311768343469,-0.0748065206,-0.0177624454,-0.0065168210,0.1323897474,0.7110846406,9.8939447239
1520530311773360469,-0.0800900843,-0.0212560283,-0.0084275181,0.0830844711,0.6595254424,9.8282327074
1520530311778376469,-0.0873802516,-0.0206651880,-0.0124677254,0.0866921743,0.6535294593,9.7910148324
1520530311783391469,-0.0929087788,-0.0194967169,-0.0143423864,0.1203640702,0.6427345731,9.8046433423
1520530311788407469,-0.0959279715,-0.0218275177,-0.0148956622,0.1624539402,0.6163502056,9.7833407996
1520530311793423469,-0.1007020729,-0.0197824124,-0.0175766919,0.2057463779,0.6091519913,9.7654942743
1520530311798439469,-0.1024619567,-0.0203658706,-0.0175778710,0.1540359662,0.6607190569,9.7647851662
1520530311803454469,-0.1062313489,-0.0194895517,-0.0189169303,0.1227692057,0.6211498581,9.7488580705
1520530311808471469,-0.1084940028,-0.0189018413,-0.0210726508,0.1384025859,0.6043606746,9.7173443888
1520530311813486469,-0.1084906156,-0.0165714935,-0.0207843202,0.1528333985,0.5803767422,9.6986330116
1520530311818503469,-0.1079891156,-0.0165676545,-0.0221379832,0.1588462370,0.5503977633,9.7416030461
1520530311823519469,-0.1059827238,-0.0177243922,-0.0251266142,0.1913155653,0.5408021111,9.7308370687
1520530311828540469,-0.1079926322,-0.0180194781,-0.0240429199,0.1660616433,0.5372066567,9.7043570720
1520530311833551469,-0.1047250026,-0.0186060662,-0.0221596122,0.1600488048,0.5300122825,9.6881525979
1520530311838567469,-0.0991987139,-0.0194744116,-0.0235292788,0.1576436693,0.5372073123,9.6846825601
1520530311843594469,-0.0986980569,-0.0226874573,-0.0205786613,0.1504282631,0.5683855253,9.6707766602
1520530311848599469,-0.0959324525,-0.0226907448,-0.0189605199,0.1564411016,0.5959652867,9.6985826950
1520530311853615469,-0.0901479220,-0.0215331403,-0.0151747197,0.1564411016,0.6151515335,9.7148340010
1520530311858631469,-0.0856205913,-0.0215444799,-0.0103132946,0.1323897474,0.6163525471,9.6813647581
1520530311863645469,-0.0815913655,-0.0163023537,-0.0086574712,0.1251743411,0.6331410750,9.6907157693
1520530311868662469,-0.0747996128,-0.0125167955,-0.0067473514,0.1263769088,0.6223487176,9.6756067169
1520530311873679469,-0.0700192191,-0.0096069070,-0.0045696211,0.1456179922,0.6187497977,9.6893686715
1520530311878694469,-0.0629767360,-0.0049412694,-0.0048176659,0.1227692057,0.6139550156,9.6826228812
1520530311883711469,-0.0574412109,0.0000137051,-0.0045195955,0.1107435285,0.6343413394,9.6583150299
1520530311888726469,-0.0493937560,0.0032169865,-0.0026162554,0.0770716326,0.6115602938,9.6342599659
1520530311893742469,-0.0413428668,0.0099212528,-0.0023095137,0.0638433877,0.5767862518,9.6413954961
1520530311898759469,-0.0370619462,0.0154548619,-0.0006519340,0.0542228460,0.5480076309,9.6496522084
1520530311903774469,-0.0320309906,0.0218796740,-0.0052116408,0.0409946012,0.5468095207,9.6637278608
1520530311908791469,-0.0264942266,0.0303429178,-0.0092156277,0.0313740595,0.5240266020,9.6615194308
1520530311913806469,-0.0229760822,0.0321006160,-0.0121848281,0.0734639294,0.5480061323,9.7122207010
1520530311918823469,-0.0174451714,0.0356074091,-0.0151444239,0.0698562263,0.5072356389,9.6716205353
1520530311923839469,-0.0151873004,0.0362063613,-0.0208256420,0.0915024451,0.4844502850,9.6842156452
1520530311928855469,-0.0146837775,0.0373742817,-0.0216293208,0.1480231276,0.4988355681,9.7464072490
1520530311933871469,-0.0119213408,0.0350399179,-0.0200289641,0.1131486640,0.5120288289,9.7688145681
1520530311938887469,-0.0119207724,0.0341599368,-0.0178712662,0.1901129976,0.5144211155,9.7703873937
1520530311943902469,-0.0154413396,0.0294832943,-0.0130304753,0.2754953052,0.4904316571,9.7916604566
1520530311948919469,-0.0166924785,0.0288796369,-0.0054573028,0.2213797581,0.5479946122,9.8374546701
1520530311953934469,-0.0191986179,0.0285632295,0.0034731560,0.1828975913,0.5887683837,9.7773579887
1520530311958950469,-0.0207076066,0.0247615282,0.0083168823,0.1612513725,0.5599906994,9.7961910471
1520530311963966469,-0.0237204718,0.0241659228,0.0126467712,0.1408077214,0.5731828363,9.7963771704
1520530311968982469,-0.0259787780,0.0250319060,0.0153630999,0.0854896066,0.5671914425,9.8027321694
1520530311974000469,-0.0294940566,0.0276551736,0.0145780041,0.0373868980,0.5635977676,9.8241224709
1520530311979015469,-0.0309991209,0.0299871160,0.0140574973,0.0133355438,0.5600022196,9.8301707998
1520530311984031469,-0.0322574576,0.0305781339,0.0108177263,0.0025124344,0.5588039221,9.8372501784
1520530311989047469,-0.0352751488,0.0314620325,0.0067718078,0.0229560855,0.5623997511,9.8823712986
1520530311994062469,-0.0362853505,0.0311855512,0.0010899878,0.0325766272,0.5959749337,9.8520291738
1520530311999078469,-0.0362914585,0.0294496274,-0.0035226309,0.0001072989,0.6235576923,9.8337240123
1520530312004094469,-0.0357979130,0.0268455743,-0.0103072195,0.0217535178,0.6367465511,9.8579054816
1520530312009111469,-0.0368080284,0.0259834102,-0.0149113021,0.0073227052,0.6667261856,9.8800974439
1520530312014126469,-0.0358156254,0.0204649804,-0.0214485091,0.0229560855,0.6799155126,9.8869052792
1520530312019143469,-0.0345674817,0.0175661960,-0.0268839915,0.0470074397,0.6547316905,9.8820471584
1520530312024159469,-0.0348184238,0.0196138020,-0.0298439680,0.0277663563,0.6655254529,9.9077910822
1520530312029174469,-0.0360720129,0.0222379557,-0.0306332643,0.0578305492,0.6895059199,9.8958536295
1520530312034190469,-0.0348160049,0.0210692678,-0.0292917608,0.0818819034,0.7206816977,9.9106969969
1520530312039207469,-0.0348187766,0.0190295761,-0.0293073224,0.1143512317,0.7398654156,9.8975786675
1520530312044222469,-0.0348191373,0.0155183931,-0.0239230815,0.1203640702,0.7674451771,9.8905203837
1520530312049239469,-0.0368319939,0.0128915026,-0.0225866260,0.1588462370,0.7914249884,9.9563646405
1520530312054255469,-0.0368319586,0.0096717041,-0.0172001621,0.1564411016,0.8034165800,9.9319713341
1520530312059272469,-0.0350764423,0.0026594970,-0.0099520440,0.1816950236,0.8094103152,9.9607732801
1520530312064286469,-0.0375973106,-0.0049254980,-0.0070291721,0.1780873205,0.7758346644,9.9538682731
1520530312069303469,-0.0373472507,-0.0084336687,-0.0027275815,0.1468205599,0.7698413974,9.9146655568
1520530312074318469,-0.0381054636,-0.0133955138,0.0002120311,0.1251743411,0.7290723089,9.8730788230
1520530312079335469,-0.0406298014,-0.0212616953,-0.0006549627,0.1263769088,0.7062885472,9.8417114486
1520530312084351469,-0.0396333604,-0.0273789197,-0.0012446062,0.1011229868,0.7026930928,9.8442850507
1520530312089367469,-0.0439138419,-0.0329139857,-0.0023610941,0.1396051536,0.6439322149,9.8160763316
1520530312094382469,-0.0431624075,-0.0340763148,-0.0034535702,0.0927050128,0.6163556379,9.7665875336
1520530312099399469,-0.0434128713,-0.0337864855,-0.0029097886,0.0614382523,0.6067649497,9.7913062428
1520530312104415469,-0.0444224182,-0.0355286306,-0.0053561733,0.0638433877,0.5623965667,9.7820289466
1520530312109431469,-0.0459335945,-0.0363960907,-0.0080655011,0.0698562263,0.5623960984,9.6901610490
1520530312114446469,-0.0471865681,-0.0334812808,-0.0085820285,0.0446023043,0.5396143972,9.7194826714
1520530312119463469,-0.0456797356,-0.0314286150,-0.0131685474,0.0241586532,0.5000443555,9.6871802149
1520530312124478469,-0.0446753675,-0.0287911919,-0.0185613245,0.0037150021,0.4856562626,9.7059875362
1520530312129494469,-0.0471841688,-0.0229521025,-0.0231114758,0.0229560855,0.4472822705,9.7000269544
1520530312134510469,-0.0469300041,-0.0185710381,-0.0268662388,0.0758690649,0.4484772899,9.6774300274
1520530312139527469,-0.0471796720,-0.0162349614,-0.0287418086,0.0927050128,0.4496751191,9.6691299796
1520530312144542469,-0.0471783038,-0.0136052163,-0.0314272598,0.0963127160,0.4580688210,9.6667623911
1520530312149559469,-0.0481783516,-0.0098176113,-0.0313964928,0.0770716326,0.4364857920,9.6995107509
1520530312154576469,-0.0471692398,-0.0066105308,-0.0319149976,0.1167563671,0.4748551948,9.6677091784
1520530312159590469,-0.0476691519,-0.0039853532,-0.0329762399,0.1420102891,0.4988360364,9.6744128491
1520530312164606469,-0.0494261816,-0.0045782811,-0.0294603224,0.1215666379,0.4976384882,9.6827480121
1520530312169623469,-0.0499248236,-0.0031281112,-0.0270133604,0.1492256953,0.5096277382,9.6383056322
1520530312174638469,-0.0494198972,-0.0025502443,-0.0251160265,0.1215666379,0.5096298924,9.6327641287
1520530312179656469,-0.0499230712,-0.0045974172,-0.0224251956,0.1396051536,0.5120267683,9.6314240702
1520530312184671469,-0.0496678598,-0.0028541106,-0.0205185026,0.1347948828,0.4928408962,9.6280031680
1520530312189687469,-0.0484117146,-0.0019743657,-0.0224079882,0.1299846119,0.4784515858,9.6780362103
1520530312194702469,-0.0481569422,-0.0002296022,-0.0210423869,0.1323897474,0.4940402240,9.6489440000
1520530312199720469,-0.0486529066,0.0009189850,-0.0148100056,0.1504282631,0.4988353807,9.6627094742
1520530312204736469,-0.0473978238,-0.0014174264,-0.0126657567,0.1408077214,0.4568662152,9.7058433678
1520530312209750469,-0.0453853671,-0.0005453988,-0.0115806376,0.1119460962,0.4904443949,9.6805243807
1520530312214766469,-0.0448784178,0.0011965493,-0.0091333195,0.1444154245,0.4808487427,9.6860284187
1520530312219783469,-0.0436178817,0.0020617256,-0.0056118872,0.0951101483,0.4364843871,9.6633087124
1520530312224800469,-0.0436129538,0.0058504529,-0.0058535330,0.0686536586,0.4244950434,9.6786857885
1520530312229815469,-0.0395854412,0.0108055651,-0.0058232081,0.0530202783,0.4185005588,9.6788438009
1520530312234831469,-0.0375659473,0.0160447184,-0.0033520133,0.0301714918,0.3813289852,9.6895617421
1520530312239847469,-0.0355490018,0.0207069300,-0.0030496318,0.0578305492,0.3957165161,9.6695220465
1520530312244862469,-0.0360525638,0.0212953296,-0.0052086194,0.0746664971,0.4208971538,9.6344693010
1520530312249880469,-0.0342910492,0.0242149631,-0.0070834769,0.0770716326,0.4161004048,9.6263155605
1520530312254894469,-0.0302633602,0.0294621883,-0.0073214748,0.0662485231,0.4137029669,9.6426932601
1520530312259912469,-0.0259896962,0.0306294002,-0.0073205168,0.0662485231,0.4149021073,9.6194492116
1520530312264926469,-0.0234794757,0.0300541716,-0.0097645432,0.0470074397,0.4220984484,9.6161430447
1520530312269944469,-0.0217231047,0.0306492847,-0.0140920985,0.0662485231,0.4256943711,9.6240872634
1520530312274958469,-0.0192124882,0.0303654406,-0.0165339018,0.1023255545,0.4352846847,9.6028081658
1520530312279976469,-0.0149413765,0.0294922323,-0.0162779595,0.1047306900,0.4352844974,9.6004604678
1520530312284991469,-0.0121799081,0.0262829865,-0.0144137261,0.1131486640,0.4460761056,9.6270973193
1520530312290007469,-0.0084139423,0.0248326397,-0.0163256637,0.1347948828,0.4220916112,9.6048292799
1520530312295022469,-0.0053988856,0.0239574823,-0.0155262959,0.1420102891,0.4352815939,9.6186919143
1520530312300039469,-0.0051500096,0.0210386365,-0.0136551722,0.0951101483,0.4724585998,9.6167878741
1520530312305055469,-0.0003755945,0.0213340770,-0.0144734546,0.1095409608,0.4424789653,9.6190009348
1520530312310072469,0.0031448394,0.0254257652,-0.0185070539,0.1275794765,0.4676595093,9.6408815380
1520530312315086469,0.0054104885,0.0283404966,-0.0184890236,0.0878947420,0.4592686171,9.6366274144
1520530312320104469,0.0076708176,0.0286385947,-0.0206553682,0.1143512317,0.4676605395,9.6526317331
1520530312325119469,0.0129484458,0.0292248881,-0.0212018150,0.1347948828,0.4988365983,9.6675102158
1520530312330135469,0.0137001861,0.0274761479,-0.0209460078,0.1564411016,0.4928392103,9.6882239626
1520530312335152469,0.0157075894,0.0269014508,-0.0236596467,0.1372000182,0.5156243769,9.6825783063
1520530312340166469,0.0162045103,0.0222373100,-0.0228845118,0.1420102891,0.4784506492,9.6721084400
1520530312345182469,0.0159524156,0.0201909640,-0.0204646936,0.1143512317,0.4748553821,9.6921376115
1520530312350200469,0.0159472681,0.0164029651,-0.0204935937,0.0878947420,0.4808531447,9.7040107156
1520530312355215469,0.0182096632,0.0175723030,-0.0215710855,0.0890973097,0.4712599277,9.7481698355
1520530312360232469,0.0192136275,0.0169913847,-0.0221184903,0.0890973097,0.4688616468,9.7539828940
1520530312365246469,0.0187082150,0.0152443375,-0.0226719872,0.0794767680,0.4628666940,9.7529202372
1520530312370263469,0.0207169748,0.0129089499,-0.0207996844,0.0818819034,0.4592690854,9.7784675021
1520530312375279469,0.0194568738,0.0105788382,-0.0213562272,0.1263769088,0.4520707774,9.7826900069
1520530312380296469,0.0186984493,0.0085446786,-0.0235347558,0.0951101483,0.4760560211,9.7260258978
1520530312385312469,0.0199541084,0.0082552432,-0.0240804043,0.0590331169,0.4604700054,9.7473108421
1520530312390328469,0.0197026802,0.0091336690,-0.0256965437,0.0927050128,0.4820519105,9.8027449622
1520530312395342469,0.0197001319,0.0085567273,-0.0278653571,0.0927050128,0.4964415956,9.7690287554
1520530312400359469,0.0207011559,0.0085709614,-0.0330075960,0.0758690649,0.5228239961,9.7761397645
1520530312405376469,0.0199425550,0.0062446888,-0.0349178018,0.0951101483,0.5276190593,9.7945421095
1520530312410392469,0.0234529566,0.0024668095,-0.0381997868,0.1191615025,0.5444051520,9.8279938123
1520530312415407469,0.0244485665,-0.0024768641,-0.0417565427,0.1696693465,0.5623883246,9.8147010763
1520530312420424469,0.0204209637,-0.0083097720,-0.0404408074,0.1877078622,0.5563912176,9.8528820977
1520530312425439469,0.0229215047,-0.0161703423,-0.0426698651,0.1480231276,0.5623900105,9.8346682146
1520530312430456469,0.0231684910,-0.0196683150,-0.0421559171,0.1744796173,0.5503965458,9.8169902374
1520530312435472469,0.0244227348,-0.0237581326,-0.0381311854,0.1708719142,0.5084269119,9.8228769992
1520530312440488469,0.0256744735,-0.0287177331,-0.0357363984,0.1925181330,0.5360054558,9.8377472848
1520530312445502469,0.0276816063,-0.0319258175,-0.0344118567,0.1576436693,0.5120253634,9.8439208380
1520530312450519469,0.0276734204,-0.0389234167,-0.0328419353,0.1612513725,0.4976353974,9.8671426340
1520530312455535469,0.0291758424,-0.0441735749,-0.0307203841,0.1853027267,0.5120232093,9.8366787580
1520530312460552469,0.0284234357,-0.0453496064,-0.0269402337,0.1961258361,0.5084249451,9.8528469358
1520530312465566469,0.0266655710,-0.0462324619,-0.0239676310,0.2237848935,0.5240116164,9.8758053972
1520530312470583469,0.0286735819,-0.0494434600,-0.0215609057,0.2045438101,0.5300088171,9.8852839831
1520530312475599469,0.0286741072,-0.0500305996,-0.0199420765,0.2418234092,0.5264084923,9.8849246343
1520530312480616469,0.0279209987,-0.0509116044,-0.0175124325,0.2562542218,0.5383987726,9.9138260791
1520530312485631469,0.0279230217,-0.0497475232,-0.0169624484,0.2129617841,0.5539909699,9.9049351081
1520530312490648469,0.0239001743,-0.0506203383,-0.0180438336,0.2033412424,0.5671822638,9.9015294540
1520530312495662469,0.0249035663,-0.0517847542,-0.0183251388,0.2033412424,0.5731779660,9.9259286303
1520530312500680469,0.0236502398,-0.0494541702,-0.0183050205,0.2165694873,0.5455967060,9.9351239211
1520530312505696469,0.0208869681,-0.0474097341,-0.0204486921,0.2069489456,0.5360043319,9.9340647723
1520530312510712469,0.0183801819,-0.0433335206,-0.0196012640,0.2081515133,0.5647836084,9.9270521394
1520530312515726469,0.0143636660,-0.0410076618,-0.0182232822,0.2009361070,0.5539919065,9.9410786212
1520530312520743469,0.0131091086,-0.0392583901,-0.0187487019,0.1901129976,0.5180185367,9.9330840393
1520530312525759469,0.0095943553,-0.0372222620,-0.0179149685,0.2021386747,0.4916365108,9.8969662516
1520530312530775469,0.0083423461,-0.0348960487,-0.0162715748,0.2009361070,0.4964331662,9.9202161584
1520530312535791469,0.0038240716,-0.0308169806,-0.0167731424,0.2045438101,0.4784457788,9.9132257196
1520530312540807469,0.0005590333,-0.0299462923,-0.0159487680,0.2177720550,0.4832413103,9.8956601273
1520530312545822469,-0.0019514498,-0.0290774938,-0.0143141562,0.2249874613,0.4964312930,9.9223063451
1520530312550839469,-0.0011971143,-0.0290786553,-0.0137744646,0.2706850343,0.4892328914,9.9021121218
1520530312555856469,-0.0032069756,-0.0282031041,-0.0145756992,0.2285951644,0.4652533610,9.8955723218
1520530312560871469,-0.0057192151,-0.0273284782,-0.0151054545,0.2201771904,0.4952325272,9.8828414403
1520530312565886469,-0.0092405625,-0.0281974543,-0.0175405027,0.2081515133,0.4604583915,9.9097217126
1520530312570903469,-0.0107508606,-0.0290678280,-0.0191676470,0.2069489456,0.4796447320,9.8829853973
1520530312575920469,-0.0120090680,-0.0293553342,-0.0207908118,0.2093540810,0.4880385276,9.8666837864
1520530312580935469,-0.0132656013,-0.0275995066,-0.0237511446,0.1937207007,0.4976328686,9.9144744996
1520530312585952469,-0.0172867315,-0.0267218293,-0.0256308290,0.2406208415,0.4952309350,9.9453982278
1520530312590967469,-0.0197980967,-0.0273135957,-0.0226546031,0.2021386747,0.4844416683,9.8911625478
1520530312595983469,-0.0213064621,-0.0278976839,-0.0223857030,0.2406208415,0.4928326541,9.8977526644
1520530312600999469,-0.0245709280,-0.0264434980,-0.0218274284,0.2646721958,0.4952290618,9.8893812169
1520530312606015469,-0.0238123740,-0.0252878626,-0.0180322937,0.2454311124,0.5072219646,9.9058268198
1520530312611032469,-0.0285861776,-0.0267561255,-0.0145174447,0.2682798989,0.4928305000,9.8661055613
1520530312616047469,-0.0316031317,-0.0293870520,-0.0118263929,0.2466336801,0.5000270284,9.9023356989
1520530312621062469,-0.0346170947,-0.0299790153,-0.0088492335,0.2706850343,0.5120165594,9.9102249120
1520530312626080469,-0.0353710853,-0.0323205849,-0.0050779755,0.2346080030,0.5156167905,9.8536275020
1520530312631096469,-0.0391407049,-0.0343704946,-0.0018399855,0.2526465187,0.5407973345,9.8092658997
1520530312636112469,-0.0431569189,-0.0340945255,0.0033100772,0.2682798989,0.5108176063,9.8486558619
1520530312641128469,-0.0436547219,-0.0308909495,0.0038765564,0.2514439509,0.5264077430,9.8058052050
1520530312646142469,-0.0466676694,-0.0294373936,0.0047049102,0.2249874613,0.5348037865,9.8037302429
1520530312651160469,-0.0491796463,-0.0288563376,0.0049845695,0.2189746227,0.5276094123,9.8154172238
1520530312656176469,-0.0506895092,-0.0311916467,0.0063223146,0.2261900290,0.5312062716,9.8060463338
1520530312661191469,-0.0519420046,-0.0300346136,0.0093095454,0.2442285447,0.5707765007,9.7849135786
1520530312666208469,-0.0531894386,-0.0245038988,0.0112479389,0.2261900290,0.5240114291,9.7653783115
1520530312671224469,-0.0529336980,-0.0218842534,0.0123496636,0.2069489456,0.5192163659,9.7609216939
1520530312676240469,-0.0549355970,-0.0154738530,0.0121317593,0.2285951644,0.5084224162,9.7781536863
1520530312681255469,-0.0534200181,-0.0102305261,0.0129806122,0.2346080030,0.5084219479,9.7513658500
1520530312686271469,-0.0531606706,-0.0052812612,0.0146412133,0.2081515133,0.4796446383,9.7098142431
1520530312691287469,-0.0516466325,-0.0014963138,0.0160200426,0.2225823258,0.4616564080,9.7201506181
1520530312696303469,-0.0511349747,0.0040350901,0.0179551690,0.2466336801,0.4328751647,9.6757831108
1520530312701319469,-0.0498746974,0.0066573147,0.0182433891,0.2285951644,0.4328765696,9.6376079362
1520530312706336469,-0.0473622305,0.0087089174,0.0141960950,0.2021386747,0.4316794897,9.6425151926
1520530312711351469,-0.0445982923,0.0095892530,0.0123038090,0.2021386747,0.4304803492,9.6657592410
1520530312716367469,-0.0395673446,0.0130871080,0.0125916975,0.2153669196,0.4496655657,9.6586389122
1520530312721385469,-0.0350411508,0.0148357305,0.0131377268,0.2322028675,0.4652530800,9.6410276807
1520530312726399469,-0.0335283907,0.0168687287,0.0158559470,0.2189746227,0.4616566890,9.6376735125
1520530312731415469,-0.0295047946,0.0186171543,0.0164029097,0.2358105707,0.4820407650,9.6270304673
1520530312736432469,-0.0269928609,0.0183289396,0.0155843817,0.2358105707,0.4820407650,9.6235440355
1520530312741447469,-0.0237214049,0.0200712423,0.0182971118,0.2261900290,0.4664526887,9.6713007794
1520530312746463469,-0.0191931882,0.0229839461,0.0193931252,0.2574567895,0.4736450961,9.6210172419
1520530312751480469,-0.0151740810,0.0209421875,0.0207228255,0.2129617841,0.4928348083,9.6504852184
1520530312756496469,-0.0103978194,0.0221095963,0.0207228501,0.2165694873,0.4664534380,9.6365301013
1520530312761512469,-0.0091409292,0.0224014731,0.0207227396,0.2285951644,0.4304782887,9.6596910100
1520530312766528469,-0.0053683693,0.0238562304,0.0220795836,0.2237848935,0.4364743655,9.6678669912
1520530312771544469,-0.0005943502,0.0238602864,0.0212590782,0.2093540810,0.4088952597,9.6250350204
1520530312776559469,0.0051853034,0.0238632793,0.0209777977,0.1985309716,0.4352771919,9.5972231855
1520530312781576469,0.0074469066,0.0244498482,0.0198958597,0.2382157061,0.4340749607,9.6096216715
1520530312786591469,0.0129739872,0.0241642718,0.0185306393,0.1985309716,0.4148918047,9.5809730489
1520530312791609469,0.0157383213,0.0253359919,0.0166405764,0.1660616433,0.4017037889,9.5952476756
1520530312796623469,0.0187551383,0.0259184856,0.0171805137,0.2334054352,0.3945037014,9.5841399129
1520530312801640469,0.0235360612,0.0297047130,0.0185532755,0.2261900290,0.3633266123,9.5807541142
1520530312806655469,0.0283122366,0.0314578045,0.0174755627,0.2249874613,0.3645258464,9.6016832411
1520530312811671469,0.0308283965,0.0352533438,0.0150648825,0.1816950236,0.3981051500,9.6195040409
1520530312816686469,0.0333405458,0.0335009222,0.0169406980,0.1865052944,0.4256850051,9.6298896215
1520530312821704469,0.0363564376,0.0329156924,0.0182833807,0.1961258361,0.4244851154,9.6204999987
1520530312826719469,0.0401259592,0.0311608494,0.0212390462,0.2454311124,0.4256804158,9.6920718473
1520530312831735469,0.0428905521,0.0305755212,0.0225821955,0.2622670604,0.4556576151,9.6976894628
1520530312836751469,0.0459057813,0.0285289982,0.0255370381,0.2442285447,0.4664512838,9.6839087871
1520530312841768469,0.0484211414,0.0288148114,0.0279695070,0.2346080030,0.4712485948,9.6537820074
1520530312846783469,0.0524483874,0.0326000149,0.0296142149,0.1913155653,0.4544640006,9.6484090404
1520530312851800469,0.0542064678,0.0320186635,0.0293359558,0.2117592164,0.4568606893,9.6877206102
1520530312856815469,0.0594862052,0.0331833555,0.0304172305,0.2153669196,0.5036268848,9.6864777468
1520530312861831469,0.0640080473,0.0331902267,0.0285150082,0.1792898882,0.4664563415,9.7252158985
1520530312866848469,0.0650131133,0.0340691447,0.0268965352,0.1889104299,0.4412736433,9.7193360944
1520530312871863469,0.0697898571,0.0349422552,0.0279765203,0.2093540810,0.4436703319,9.6982161786
1520530312876880469,0.0753200112,0.0346464808,0.0303989424,0.2129617841,0.4376743488,9.7051597739
1520530312881897469,0.0793434309,0.0361027934,0.0312142279,0.2141643518,0.4568605019,9.7028050715
1520530312886911469,0.0798422415,0.0320177795,0.0333465385,0.2418234092,0.4592566286,9.7025335165
1520530312891927469,0.0838611684,0.0282204295,0.0373683592,0.2165694873,0.4796439827,9.7492452021
1520530312896942469,0.0863739802,0.0279293011,0.0376320148,0.2538490864,0.5096195898,9.7430423921
1520530312901961469,0.0903987995,0.0273320818,0.0435721108,0.2526465187,0.5551870195,9.7488203820
1520530312906976469,0.0941673488,0.0232388782,0.0492154505,0.2562542218,0.5707755641,9.7359864820
1520530312911991469,0.0946698053,0.0197271638,0.0548693039,0.2526465187,0.6247371641,9.7998868943
1520530312917008469,0.0974374718,0.0191316375,0.0600000958,0.2562542218,0.6391265682,9.8370263536
1520530312922024469,0.0971868708,0.0173730339,0.0637748665,0.2586593572,0.6211392745,9.8300476199
1520530312927040469,0.0981995384,0.0202756181,0.0681239648,0.2442285447,0.6451232069,9.8220296861
1520530312932055469,0.1004643916,0.0211441019,0.0705613466,0.2057463779,0.5707794978,9.8468817700
1520530312937072469,0.0982035372,0.0214331434,0.0711088620,0.2129617841,0.5875669018,9.8107687063
1520530312942089469,0.0954407477,0.0231832813,0.0700451509,0.1588462370,0.5791771335,9.8020064676
1520530312947103469,0.0941882132,0.0260966343,0.0700697154,0.1179589348,0.5587949307,9.8477479325
1520530312952119469,0.0929324287,0.0287280724,0.0665749601,0.1432128568,0.5491998405,9.8196200261
1520530312957137469,0.0886621167,0.0331110067,0.0614758687,0.1540359662,0.5264153295,9.8067533146
1520530312962151469,0.0843899112,0.0354513357,0.0574433992,0.1420102891,0.5276154065,9.7964099002
1520530312967168469,0.0808746365,0.0395380818,0.0542345058,0.1528333985,0.5048308955,9.8439746743
1520530312972183469,0.0761002724,0.0418767570,0.0507440615,0.1708719142,0.4844441034,9.8298732497
1520530312977200469,0.0688125633,0.0421667432,0.0502187278,0.1780873205,0.4664564351,9.8286584155
1520530312982216469,0.0635333120,0.0421712315,0.0477936159,0.2021386747,0.4976322129,9.8388532072
1520530312987232469,0.0570007303,0.0430428252,0.0478124200,0.2093540810,0.5156187573,9.8771161872
1520530312992248469,0.0461913562,0.0386598110,0.0507751477,0.2394182738,0.5180146967,9.8373083277
1520530312997262469,0.0399089678,0.0366081883,0.0542883508,0.2225823258,0.5515919398,9.8223315856
1520530313002279469,0.0326237167,0.0365973204,0.0572778906,0.2562542218,0.5587841598,9.8429154191
1520530313007296469,0.0230758509,0.0354178429,0.0610743763,0.2418234092,0.5348024753,9.8209985315
1520530313012311469,0.0137773473,0.0324886999,0.0653981486,0.2430259770,0.5419972242,9.8418984016
1520530313017328469,0.0085001581,0.0319009495,0.0664856872,0.2165694873,0.5623846719,9.7770559726
1520530313022344469,0.0014604899,0.0289821622,0.0672881622,0.1504282631,0.5731820870,9.8241749848
1520530313027360469,-0.0065791359,0.0307287757,0.0667753441,0.1492256953,0.5563942147,9.8369866441
1520530313032375469,-0.0123565430,0.0333526141,0.0654533570,0.1408077214,0.5695854150,9.7987049663
1520530313037393469,-0.0191421328,0.0354005740,0.0614233317,0.0975152837,0.5599956634,9.7665956723
1520530313042408469,-0.0236612385,0.0406531928,0.0579546516,0.1215666379,0.5659894923,9.7593828608
1520530313047423469,-0.0294333569,0.0505769415,0.0510067779,0.1215666379,0.5492015264,9.7501020799
1520530313052440469,-0.0354601654,0.0567067654,0.0461948379,0.1396051536,0.5384078577,9.7487748841
1520530313057455469,-0.0392252413,0.0625446340,0.0419175661,0.1131486640,0.5324142161,9.7037146279
1520530313062471469,-0.0429926458,0.0678048326,0.0357420269,0.0902998774,0.5252211531,9.6772147290
1520530313067488469,-0.0470160577,0.0692754770,0.0300791461,0.0830844711,0.4940440640,9.6563967710
1520530313072504469,-0.0502880311,0.0710472709,0.0208999915,0.1131486640,0.4832494587,9.6514660928
1520530313077520469,-0.0515462306,0.0736867217,0.0144292314,0.0963127160,0.4544713998,9.6470094519
1520530313082536469,-0.0525482935,0.0792372025,0.0090624190,0.0446023043,0.4173020740,9.6336032914
1520530313087551469,-0.0555644831,0.0833358005,0.0015238578,0.0061201375,0.4292964754,9.6374525917
1520530313092568469,-0.0565720385,0.0874410136,-0.0081828044,0.0253612209,0.4185027130,9.6291408272
1520530313097583469,-0.0593363570,0.0921232075,-0.0159879320,0.0061201375,0.4244999137,9.5991065186
1520530313102600469,-0.0608389514,0.0985447313,-0.0202649581,0.0265637886,0.4508794108,9.6476918532
1520530313107616469,-0.0605869391,0.1026402386,-0.0261863114,0.0854896066,0.4340868555,9.6727018432
1520530313112631469,-0.0626021557,0.1041189550,-0.0345583849,0.0770716326,0.4568711792,9.6948422963
1520530313117648469,-0.0658684681,0.1047011725,-0.0348184173,0.0301714918,0.4832559212,9.7522181218
1520530313122663469,-0.0676322644,0.1023745061,-0.0367267562,0.0205509501,0.4796592492,9.7499909823
1520530313127679469,-0.0688927613,0.0997530100,-0.0372855221,0.0722613617,0.4796552219,9.7715684000
1520530313132695469,-0.0714124378,0.0945056471,-0.0367797786,0.0999204191,0.5024367357,9.7921955575
1520530313137712469,-0.0754370493,0.0907117023,-0.0351779358,0.1227692057,0.5324134668,9.7791603444
1520530313142727469,-0.0751913841,0.0857546217,-0.0338634655,0.1131486640,0.5444056203,9.7618101322
1520530313147743469,-0.0744451481,0.0781701781,-0.0306761151,0.0806793357,0.5695900980,9.7853444917
1520530313152759469,-0.0762102774,0.0699939683,-0.0245125388,0.0794767680,0.5911747193,9.8039294519
1520530313157776469,-0.0757148620,0.0606516495,-0.0178209636,0.1059332577,0.6103589055,9.8303825422
1520530313162791469,-0.0754700868,0.0513070471,-0.0103172840,0.1023255545,0.6451342588,9.8687344970
1520530313167807469,-0.0757274231,0.0431314279,-0.0041565080,0.1359974505,0.6451316363,9.8672446114
1520530313172824469,-0.0739759094,0.0334982169,0.0025305105,0.0890973097,0.6283473231,9.8897982145
1520530313177841469,-0.0682063432,0.0215340481,0.0097333685,0.0734639294,0.6823098598,9.8678170249
1520530313182856469,-0.0669569411,0.0130698205,0.0150774834,0.0722613617,0.6919030768,9.9003594059
1520530313187872469,-0.0662144060,0.0008144834,0.0214758151,0.0614382523,0.6595271283,9.9039827555
1520530313192888469,-0.0626994450,-0.0056128086,0.0281840205,0.0446023043,0.6511344566,9.8983440918
1520530313197903469,-0.0586863243,-0.0131959722,0.0313653035,0.0205509501,0.6511363298,9.9264696479
1520530313202920469,-0.0544188663,-0.0175694370,0.0329472983,-0.0059055396,0.6391469861,9.8674695108
1520530313207935469,-0.0531639168,-0.0204908027,0.0358987387,0.0025124344,0.6415446113,9.7930080237
1520530313212951469,-0.0468831241,-0.0239951537,0.0396480361,-0.0419825710,0.6019764428,9.8202090099
1520530313217968469,-0.0426138628,-0.0272038087,0.0415094691,-0.0528056804,0.5935833027,9.8342682683
1520530313222983469,-0.0390992428,-0.0298248911,0.0414829272,-0.0022978365,0.5731939818,9.8175265193
1520530313228000469,-0.0325651675,-0.0304087425,0.0428190758,-0.0419825710,0.5660022300,9.7865419154
1520530313233015469,-0.0262824811,-0.0318704880,0.0455017512,-0.0588185190,0.5528129966,9.7878807929
1520530313238033469,-0.0220118124,-0.0342057180,0.0476403994,-0.0431851387,0.5504134982,9.7842445340
1520530313243048469,-0.0179951280,-0.0391664208,0.0508416901,-0.0299568939,0.5360227829,9.7771569467
1520530313248064469,-0.0119628192,-0.0409240199,0.0551458846,-0.0287543262,0.5132390212,9.8283017931
1520530313253079469,-0.0051763865,-0.0397550951,0.0548716295,-0.0696416284,0.5372250141,9.8100820750
1520530313258096469,-0.0021603575,-0.0382918920,0.0529833230,-0.0624262221,0.5204364862,9.7798124726
1520530313263111469,0.0036253687,-0.0333331768,0.0519281972,-0.0732493316,0.5072467845,9.7299584908
1520530313268128469,0.0073971838,-0.0312905514,0.0513956662,-0.0720467638,0.4892595845,9.7566936367
1520530313273144469,0.0119234207,-0.0298347703,0.0524805642,-0.0407800033,0.4496855153,9.7122664232
1520530313278159469,0.0156944047,-0.0266185941,0.0489809206,-0.1021109567,0.4448937303,9.7035709068
1520530313283176469,0.0184603227,-0.0242813358,0.0470997501,-0.0720467638,0.4520862313,9.6800283853
1520530313288192469,0.0209751614,-0.0219449045,0.0454895921,-0.0624262221,0.4388949374,9.6706504559
1520530313293207469,0.0255013591,-0.0187328034,0.0436118238,-0.0636287899,0.4005225375,9.6660510040
1520530313298224469,0.0292754206,-0.0140633467,0.0414760251,-0.0852750087,0.4089182063,9.6627670778
1520530313303240469,0.0312892456,-0.0105615742,0.0398756930,-0.0624262221,0.3897301800,9.7136977251
1520530313308256469,0.0315422655,-0.0073475047,0.0366531295,-0.0407800033,0.3741396686,9.7076915158
1520530313313271469,0.0317993312,-0.0018052728,0.0345305342,-0.0624262221,0.3789379162,9.7137082492
1520530313318288469,0.0338139481,0.0022792688,0.0329346482,-0.0744518993,0.3849345549,9.7451973398
1520530313323305469,0.0340753224,0.0098560934,0.0327214358,-0.0600210867,0.3813360097,9.6881153334
1520530313328320469,0.0353400063,0.0183176634,0.0287253832,-0.0455902742,0.3537546561,9.7042717829
1520530313333336469,0.0350983909,0.0270663851,0.0260870836,-0.0564133836,0.3681451841,9.6811202173
1520530313338351469,0.0330902036,0.0299852702,0.0239486810,-0.0924904150,0.3705462748,9.6744961665
1520530313343367469,0.0328420332,0.0340725678,0.0210042661,-0.1069212275,0.4185130156,9.6222933757
1520530313348384469,0.0323438421,0.0399117164,0.0167209269,-0.0840724410,0.4089181127,9.6557825090
1520530313353400469,0.0310891553,0.0425395123,0.0145789011,-0.0299568939,0.3741388257,9.6576139802
1520530313358417469,0.0288228045,0.0399198076,0.0132103644,-0.0564133836,0.3993228351,9.6520362156
1520530313363431469,0.0285718585,0.0405039351,0.0126741855,-0.0479954096,0.4113135837,9.7054012087
1520530313368449469,0.0268077525,0.0373002014,0.0118413609,0.0181458146,0.4232998367,9.7233400405
1520530313373464469,0.0267964891,0.0288493216,0.0120474373,0.0470074397,0.4352889931,9.7335067213
1520530313378480469,0.0207608244,0.0235932960,0.0152651739,0.0049175698,0.4532793775,9.7048452593
1520530313383496469,0.0187491087,0.0206699220,0.0184932276,0.0373868980,0.4412854445,9.7219730755
1520530313388513469,0.0192508674,0.0189167127,0.0203727769,0.0446023043,0.4412848825,9.7172542694
1520530313393528469,0.0152306075,0.0168645192,0.0244228713,0.0085252729,0.4328937093,9.7106407427
1520530313398545469,0.0099486237,0.0130729960,0.0249448642,0.0241586532,0.4149053854,9.6709932226
1520530313403560469,0.0064306125,0.0119002520,0.0271068732,0.0181458146,0.4256981175,9.7082298304
1520530313408576469,0.0036626285,0.0086917539,0.0278991909,-0.0083106751,0.3921242462,9.7061957952
1520530313413591469,0.0019018195,0.0069405723,0.0287007571,0.0061201375,0.4089110882,9.6897689484
1520530313418607469,-0.0016156192,0.0063513258,0.0305966663,0.0289689240,0.4161041512,9.7011609759
1520530313423624469,-0.0031308453,0.0016922248,0.0292111678,0.0470074397,0.4113061846,9.7405029718
1520530313428641469,-0.0079116389,-0.0029725267,0.0294550121,0.0674510909,0.4556727880,9.7321257126
1520530313433657469,-0.0094297700,-0.0102562738,0.0288611435,0.0794767680,0.4796546599,9.7226881236
1520530313438672469,-0.0119487840,-0.0140423435,0.0277547270,0.0626408200,0.4940456562,9.7042436591
1520530313443688469,-0.0154716760,-0.0178331775,0.0282734529,0.0277663563,0.5396157085,9.7080251027
1520530313448704469,-0.0179838253,-0.0160807559,0.0263976373,0.0253612209,0.5384167554,9.7057253942
1520530313453720469,-0.0182326582,-0.0134547515,0.0250653823,0.0554254137,0.5108341841,9.6915139352
1520530313458737469,-0.0169722005,-0.0090769354,0.0226614819,0.0830844711,0.4808535194,9.7098682556
1520530313463751469,-0.0177213415,-0.0041171379,0.0202657615,0.0854896066,0.4892473150,9.6935666448
1520530313468769469,-0.0192281622,-0.0017793681,0.0175808876,0.1095409608,0.5276179353,9.6967815567
1520530313473785469,-0.0184655075,0.0058020240,0.0157434663,0.1287820442,0.5408069814,9.6803113977
1520530313478800469,-0.0187149990,0.0084302137,0.0135995737,0.1059332577,0.5024362674,9.6701119170
1520530313483816469,-0.0179607497,0.0090147350,0.0130615279,0.1131486640,0.4904443012,9.6642426603
1520530313488832469,-0.0169562051,0.0119442711,0.0074004280,0.0915024451,0.5084330935,9.6900029782
1520530313493848469,-0.0162057743,0.0131268585,0.0011853646,0.0662485231,0.5120324816,9.6832724127
1520530313498864469,-0.0157030354,0.0166389668,-0.0044703557,0.1384025859,0.5180225641,9.6430513681
1520530313503880469,-0.0141950229,0.0166388291,-0.0042026101,0.1732770496,0.4880413374,9.6415790110
1520530313508897469,-0.0111734975,0.0210107785,-0.0041748645,0.1396051536,0.4808491173,9.6721295114
1520530313513911469,-0.0131849859,0.0210136330,-0.0055238602,0.1600488048,0.4736526826,9.7207475876
1520530313518929469,-0.0116829990,0.0172284102,-0.0063671983,0.1540359662,0.5000342402,9.6905646446
1520530313523944469,-0.0094231992,0.0166501694,-0.0077285745,0.0915024451,0.4820520042,9.6935151355
1520530313528961469,-0.0061536760,0.0181061866,-0.0069118888,0.1167563671,0.4880457394,9.7362628090
1520530313533977469,-0.0074078846,0.0189762058,-0.0055501564,0.1684667787,0.4832451503,9.7078727140
1520530313538992469,-0.0069084977,0.0169381679,-0.0061077433,0.1492256953,0.5108268786,9.7208166836
1520530313544007469,-0.0079133481,0.0145950429,-0.0017949267,0.1600488048,0.4952372102,9.7160779637
1520530313549024469,-0.0071591458,0.0140089271,-0.0004480436,0.1359974505,0.5012347855,9.7174683621
1520530313554040469,-0.0059015618,0.0110788202,0.0057499476,0.1227692057,0.5096297987,9.7361832356
1520530313559057469,-0.0086675229,0.0090344033,0.0070922494,0.0866921743,0.5156283107,9.7388528285
1520530313564071469,-0.0096750940,0.0072857023,0.0070807778,0.0951101483,0.5108310933,9.7004248199
1520530313569088469,-0.0094211568,0.0087405381,0.0079030642,0.0506151429,0.5108345588,9.6903986114
1520530313574104469,-0.0104211654,0.0107718233,0.0108964975,0.0638433877,0.4832532988,9.7286475011
1520530313579120469,-0.0081523094,0.0142613109,0.0138949789,0.0614382523,0.4592706776,9.7403157376
1520530313584136469,-0.0083992527,0.0174664423,0.0139198996,0.0421971689,0.4208996826,9.7207839901
1520530313589152469,-0.0086501516,0.0192212069,0.0114987917,0.0566279814,0.4472796480,9.7031856446
1520530313594167469,-0.0096540257,0.0206799210,0.0107001364,0.0842870388,0.4220955449,9.7192109998
1520530313599185469,-0.0086491401,0.0198032475,0.0117737838,0.0866921743,0.4436798852,9.6877886548
1520530313604201469,-0.0081410461,0.0227121907,0.0136889025,0.0794767680,0.4580701323,9.6901691410
1520530313609216469,-0.0056264308,0.0235858719,0.0142319963,0.0542228460,0.4316910098,9.6811435210
1520530313614231469,-0.0036180160,0.0235932155,0.0117933494,0.0710587940,0.4328888390,9.7042213600
1520530313619249469,-0.0008521020,0.0244669952,0.0123359765,0.0842870388,0.4556714768,9.7296375539
1520530313624264469,0.0019105543,0.0221319030,0.0142068792,0.1251743411,0.4568674328,9.7234276929
1520530313629280469,0.0026645801,0.0212536742,0.0158220851,0.1287820442,0.4592654327,9.7268766709
1520530313634297469,0.0051748829,0.0186292843,0.0168795937,0.1131486640,0.5036348459,9.7479041623
1520530313639313469,0.0079339755,0.0136717313,0.0187304886,0.1239717734,0.5192228285,9.7884586537
1520530313644327469,0.0099438329,0.0113327015,0.0219555208,0.1420102891,0.5024334576,9.7952723124
1520530313649344469,0.0137094420,0.0078346503,0.0230040265,0.1299846119,0.5216206410,9.7395877437
1520530313654361469,0.0157161748,0.0028717030,0.0267501429,0.1420102891,0.5192214236,9.7464458955
1520530313659377469,0.0179744300,-0.0006283959,0.0283425407,0.1323897474,0.5264170154,9.7523432397
1520530313664392469,0.0202336535,-0.0032536127,0.0296710619,0.1480231276,0.5132252531,9.7417446411
1520530313669409469,0.0242553992,-0.0038406339,0.0318235153,0.1083383931,0.5132283439,9.7374823322
1520530313674425469,0.0280306838,-0.0015168220,0.0350808499,0.0710587940,0.4988415623,9.7611021001
1520530313679440469,0.0302920205,-0.0021001618,0.0356132950,0.0674510909,0.4808547369,9.7390740202
1520530313684457469,0.0333118287,0.0005212951,0.0364393398,0.0482100075,0.4388863207,9.7660315389
1520530313689473469,0.0380884471,0.0037364083,0.0334789211,0.0385894657,0.4328913678,9.7777524656
1520530313694488469,0.0395949228,0.0037413696,0.0318528454,0.0650459554,0.4328893073,9.7310091962
1520530313699504469,0.0413560415,0.0063696186,0.0299757649,0.1107435285,0.4113012206,9.7666119148
1520530313704521469,0.0441221790,0.0087061484,0.0283651402,0.1251743411,0.3909147095,9.7850856361
1520530313709537469,0.0436170762,0.0078361685,0.0267361290,0.0890973097,0.3981123618,9.7982133553
1520530313714552469,0.0431144355,0.0081288130,0.0261981938,0.0854896066,0.3861212386,9.8284759066
1520530313719568469,0.0431121067,0.0075511429,0.0242999263,0.1143512317,0.4065043779,9.8212022428
1520530313724585469,0.0420999213,0.0043542605,0.0210307885,0.0806793357,0.4316889493,9.7959382613
1520530313729601469,0.0393297889,0.0023236838,0.0172327183,0.0975152837,0.4256919360,9.8015909569
1520530313734617469,0.0380736907,0.0026145761,0.0172372750,0.1047306900,0.4436784803,9.7829088832
1520530313739633469,0.0370633989,0.0014602990,0.0129015153,0.0722613617,0.4304904645,9.7867242144
1520530313744648469,0.0358058972,0.0023412446,0.0102050592,0.1059332577,0.4640637739,9.7852015873
1520530313749665469,0.0347988985,0.0011760411,0.0099274878,0.1179589348,0.4724568202,9.7885627833
1520530313754681469,0.0312772885,0.0006006349,0.0066830250,0.1299846119,0.4328842497,9.7745385934
1520530313759697469,0.0285159926,0.0026385151,0.0069742665,0.0902998774,0.4448787447,9.7853724625
1520530313764712469,0.0252502055,0.0026335931,0.0083330634,0.1335923151,0.4101003007,9.7768499836
1520530313769729469,0.0212314041,0.0040889404,0.0083516464,0.1516308308,0.4292851425,9.7813042742
1520530313774744469,0.0182252663,0.0069833934,0.0151431253,0.1432128568,0.4364806407,9.7662713221
1520530313779761469,0.0132017988,0.0093146858,0.0143586068,0.1179589348,0.4244912033,9.7723395415
1520530313784777469,0.0079267188,0.0093053340,0.0170738669,0.0939075805,0.4160990935,9.8144190103
1520530313789792469,0.0056663505,0.0107635558,0.0162775451,0.0770716326,0.4053081410,9.7843776624
1520530313794808469,0.0049162412,0.0148484713,0.0141457013,0.0674510909,0.3753303797,9.7810141044
1520530313799825469,-0.0011106575,0.0201004994,0.0106798216,0.0253612209,0.3717362365,9.7837515773
1520530313804841469,-0.0051204812,0.0291362151,0.0091329294,0.0446023043,0.3621416146,9.7603307721
1520530313809856469,-0.0073782071,0.0335126527,0.0067355632,0.0746664971,0.3345590433,9.7647136163
1520530313814872469,-0.0121551626,0.0355672277,0.0005374369,0.0578305492,0.3465517588,9.7799736651
1520530313819889469,-0.0144163149,0.0393696375,-0.0051109263,0.1023255545,0.3465482934,9.7841891538
1520530313824905469,-0.0184487397,0.0364797120,-0.0145947959,0.1095409608,0.3465477314,9.8352532574
1520530313829920469,-0.0219675780,0.0379439975,-0.0178236971,0.1143512317,0.3669327440,9.8038086717
1520530313834937469,-0.0239828457,0.0367885982,-0.0218870441,0.1528333985,0.4136962234,9.7964156419
1520530313839952469,-0.0267564947,0.0333061979,-0.0275900510,0.1468205599,0.4112984108,9.8232058168
1520530313844967469,-0.0295277719,0.0301086263,-0.0308559217,0.1588462370,0.4208905976,9.8230794115
1520530313849985469,-0.0317866504,0.0303911119,-0.0278734933,0.1828975913,0.4064990393,9.8519129413
1520530313855001469,-0.0345484324,0.0312598119,-0.0262384147,0.2213797581,0.4136908847,9.8259641965
1520530313860018469,-0.0400781514,0.0300906509,-0.0256959473,0.2093540810,0.4460686128,9.8562654177
1520530313865032469,-0.0418390976,0.0262910364,-0.0216633920,0.2297977321,0.4400713184,9.8467751268
1520530313870050469,-0.0438465009,0.0268657335,-0.0189497530,0.2225823258,0.4376735996,9.8735770068
1520530313875065469,-0.0496272129,0.0251100629,-0.0170585356,0.2033412424,0.4808441534,9.8783707673
1520530313880081469,-0.0544014085,0.0248138940,-0.0159697074,0.2502413832,0.4748447985,9.9197572991
1520530313885096469,-0.0559093348,0.0242283489,-0.0151597155,0.2237848935,0.4976305271,9.9002361457
1520530313890112469,-0.0591777132,0.0239393266,-0.0165086007,0.2237848935,0.4748468590,9.8839883478
1520530313895128469,-0.0624463112,0.0236510327,-0.0181280318,0.2261900290,0.4412707398,9.9281591495
1520530313900145469,-0.0679782256,0.0224891560,-0.0202910234,0.2622670604,0.4100902790,9.9301626885
1520530313905161469,-0.0684836342,0.0222055873,-0.0232683179,0.2466336801,0.4088923562,9.9651803422
1520530313910177469,-0.0724987387,0.0268683498,-0.0240369186,0.2442285447,0.4184856669,9.8954657603
1520530313915192469,-0.0732475739,0.0312417360,-0.0250843557,0.2754953052,0.3333442617,9.8940823080
1520530313920209469,-0.0724889220,0.0362021243,-0.0274828765,0.2550516541,0.3177570284,9.8966207833
1520530313925224469,-0.0732447512,0.0359155434,-0.0293775207,0.2935338209,0.3141566100,9.9218168965
1520530313930241469,-0.0752525857,0.0394186544,-0.0320525689,0.2851158469,0.3189538273,9.8812191161
1520530313935257469,-0.0752530719,0.0382494741,-0.0307087317,0.3055594980,0.3561255882,9.8600652895
1520530313940273469,-0.0745008023,0.0373770728,-0.0312578929,0.3572699097,0.3717103863,9.8990596651
1520530313945288469,-0.0740000551,0.0350418229,-0.0296533357,0.4017649151,0.3872957464,9.8614227700
1520530313950305469,-0.0699816104,0.0315387711,-0.0267114754,0.3849289671,0.4232712704,9.8510922651
1520530313955322469,-0.0684776046,0.0274541510,-0.0245810318,0.3825238317,0.4616439512,9.8371325289
1520530313960338469,-0.0687310636,0.0242415384,-0.0218995601,0.3260031491,0.5012199872,9.8701841091
1520530313965351469,-0.0659638793,0.0239403104,-0.0178487287,0.3777135608,0.5036142407,9.8894349002
1520530313970369469,-0.0611845872,0.0253903626,-0.0145999302,0.3668904514,0.5048142241,9.8558369017
1520530313975385469,-0.0579146249,0.0268449230,-0.0132421527,0.3235980137,0.5096141575,9.8597400382
1520530313980402469,-0.0508722791,0.0294621277,-0.0102592083,0.3404339617,0.4832317570,9.8654126126
1520530313985416469,-0.0488567880,0.0320802771,-0.0083491131,0.3680930191,0.4700390581,9.8860748503
1520530313990434469,-0.0435761293,0.0329492139,-0.0056467861,0.4029674828,0.4772311845,9.8706205162
1520530313995447469,-0.0372832421,0.0367221918,0.0008635475,0.4113854568,0.4496502992,9.8601061800
1520530314000465469,-0.0332521345,0.0396164879,0.0087241417,0.4053726182,0.4664387334,9.8810669257
1520530314005481469,-0.0279658970,0.0413450097,0.0168440559,0.3861315348,0.5144058489,9.8870181528
1520530314010497469,-0.0216751739,0.0404419950,0.0284591921,0.4282214047,0.4928180432,9.8459544855
1520530314015512469,-0.0153821181,0.0415801288,0.0395487981,0.4089803213,0.4772307162,9.8089683613
1520530314020529469,-0.0103443686,0.0435919239,0.0506474070,0.3211928783,0.4640470088,9.8272678525
1520530314025545469,-0.0063135236,0.0467797898,0.0576985866,0.3368262586,0.4760371954,9.8236175615
1520530314030561469,-0.0002773023,0.0467653988,0.0639099409,0.3536622065,0.4628453395,9.7665214997
1520530314035576469,0.0029959963,0.0479161914,0.0698647755,0.2947363886,0.4640490693,9.7589588704
1520530314040592469,0.0087844825,0.0505241627,0.0760966043,0.2634696281,0.4532592406,9.7662465897
1520530314045608469,0.0130595930,0.0508084798,0.0793374438,0.2911286855,0.3837069419,9.7579101874
1520530314050625469,0.0165835397,0.0548885131,0.0796325788,0.2803055761,0.3849069252,9.7777708108
1520530314055641469,0.0188433395,0.0543102723,0.0782712026,0.2502413832,0.3873075476,9.7687639469
1520530314060657469,0.0246259804,0.0548887499,0.0806998272,0.2875209823,0.3717158186,9.7602812838
1520530314065672469,0.0273906634,0.0551812175,0.0806969163,0.2754953052,0.3897038616,9.7603807943
1520530314070689469,0.0283962939,0.0537166759,0.0836599389,0.3151800397,0.3980947538,9.7402298949
1520530314075705469,0.0324150052,0.0513835328,0.0849874161,0.2658747635,0.4004968747,9.7558153349
1520530314080721469,0.0341788877,0.0531245164,0.0879734924,0.2754953052,0.4004961254,9.7870995812
1520530314085737469,0.0334289038,0.0548674292,0.0898820523,0.2899261178,0.4604520226,9.7253070240
1520530314090752469,0.0326838008,0.0592284322,0.0934338954,0.2466336801,0.4448665689,9.7025007284
1520530314095768469,0.0339488297,0.0653472711,0.0937487925,0.2129617841,0.4244838042,9.7295776597
1520530314100785469,0.0344623849,0.0743847589,0.0921934993,0.2285951644,0.4436688334,9.7433525119
1520530314105801469,0.0332145627,0.0825510462,0.0892820745,0.2478362478,0.4256802285,9.7094805965
1520530314110817469,0.0287024432,0.0895366752,0.0915081967,0.2297977321,0.4556601439,9.7421669695
1520530314115832469,0.0277050809,0.0959496547,0.0904767879,0.2682798989,0.4304751979,9.6964933496
1520530314120849469,0.0282119479,0.0997407642,0.0894225710,0.2875209823,0.3825080824,9.6440563644
1520530314125865469,0.0249474781,0.0997314715,0.0924046432,0.3019517949,0.3645198522,9.6822841943
1520530314130881469,0.0241933542,0.0968049475,0.0969830928,0.3464468003,0.3837026335,9.6736973901
1520530314135897469,0.0231782128,0.0883493034,0.0988143115,0.3211928783,0.3525269494,9.7402158045
1520530314140913469,0.0224170909,0.0792993338,0.1049693516,0.3572699097,0.3453292970,9.7538173963
1520530314145928469,0.0219156262,0.0760756963,0.1117094785,0.3500545034,0.3513255611,9.7341253327
1520530314150945469,0.0226660374,0.0699408911,0.1176134033,0.3464468003,0.3825034931,9.7329679011
1520530314155960469,0.0209072867,0.0661339923,0.1243514176,0.3656878837,0.3944933988,9.7839032608
1520530314160977469,0.0191482733,0.0626206633,0.1302800174,0.3560673420,0.4184769565,9.7653792112
1520530314165993469,0.0176405155,0.0594002741,0.1356692817,0.3548647743,0.4400615778,9.7909370351
1520530314171009469,0.0176436283,0.0576337562,0.1424195906,0.3572699097,0.4280699862,9.8141681975
1520530314176025469,0.0146247375,0.0532530656,0.1456383957,0.3272057169,0.4904276298,9.7865085633
1520530314181042469,0.0136165900,0.0494573886,0.1483168215,0.3692955868,0.4700389645,9.7640380300
1520530314186057469,0.0116072932,0.0479894803,0.1520970824,0.3260031491,0.4760380383,9.7644535653
1520530314191073469,0.0098475859,0.0476981350,0.1518275804,0.2742927375,0.4760420657,9.7359032839
1520530314196088469,0.0078384223,0.0468151811,0.1548006498,0.3272057169,0.4496568554,9.6912525166
1520530314201106469,0.0065807874,0.0471111723,0.1529113853,0.3320159877,0.4160805489,9.7121570291
1520530314206121469,0.0068324351,0.0462320182,0.1547980706,0.3043569303,0.4124852818,9.7438076402
1520530314211137469,0.0058244249,0.0444847741,0.1542455071,0.3211928783,0.3633192132,9.7285838409
