#timestamp [ns],w_RS_S_x [rad s^-1],w_RS_S_y [rad s^-1],w_RS_S_z [rad s^-1],a_RS_S_x [m s^-2],a_RS_S_y [m s^-2],a_RS_S_z [m s^-2]
1520530731372454010,-0.0884747972,-0.1008611572,0.0110013777,-0.2584447593,-0.4364623051,10.0313523357
1520530731377471010,-0.0897474356,-0.1119306194,0.0095665046,-0.2091394831,-0.4856309025,10.0134882120
1520530731382486010,-0.0827211086,-0.1227243872,0.0151526460,-0.1502136652,-0.5348002492,9.9211532347
1520530731387502010,-0.0784616170,-0.1340961796,0.0185751081,-0.1261623109,-0.5815685990,9.8431010929
1520530731392518010,-0.0706841142,-0.1442952281,0.0198355611,-0.1442008266,-0.5971560196,9.7712389450
1520530731397533010,-0.0613931849,-0.1495365067,0.0197782768,-0.1935061029,-0.6427195156,9.7008725060
1520530731402549010,-0.0516010574,-0.1527240566,0.0145952487,-0.2295831342,-0.6535089696,9.6675320071
1520530731407565010,-0.0380445009,-0.1573568542,0.0056064617,-0.2367985405,-0.6307247396,9.5908785190
1520530731412580010,-0.0197065471,-0.1614246797,0.0039179923,-0.3209782804,-0.6642941153,9.5150291134
1520530731417597010,-0.0031358160,-0.1683931995,-0.0029298129,-0.3390167961,-0.7266480124,9.5478055257
1520530731422613010,0.0172149630,-0.1651508576,-0.0137649993,-0.3053449002,-0.7422394604,9.4951965075
1520530731427629010,0.0400786402,-0.1627853268,-0.0232587928,-0.3486373378,-0.7350412461,9.4990973054
1520530731432644010,0.0553958332,-0.1644955772,-0.0352046209,-0.3642707181,-0.7374383093,9.4829817945
1520530731437660010,0.0722321766,-0.1554130829,-0.0511291836,-0.4099682912,-0.7566209970,9.5148231828
1520530731442677010,0.0888111092,-0.1495300894,-0.0692421006,-0.3738912598,-0.7062599090,9.5365036540
1520530731447691010,0.1006288229,-0.1352053712,-0.0848467674,-0.4207914006,-0.7230442222,9.5044364912
1520530731452708010,0.1124427063,-0.1246730224,-0.0988570589,-0.4207914006,-0.7482261711,9.4661102968
1520530731457723010,0.1219935399,-0.1138443477,-0.1150252940,-0.4316145100,-0.7218442389,9.5184863948
1520530731462737010,0.1297784170,-0.1085548535,-0.1304208629,-0.3510424732,-0.7194522332,9.5641855755
1520530731467755010,0.1380652606,-0.1094097326,-0.1363949438,-0.2187600248,-0.6966788678,9.5675243777
1520530731472771010,0.1473465183,-0.1190093958,-0.1410848546,-0.1369854203,-0.6343299346,9.5910726513
1520530731477787010,0.1520963837,-0.1367797960,-0.1420409682,-0.0720467638,-0.5959624987,9.6089974626
1520530731482803010,0.1593688660,-0.1498979857,-0.1389079913,-0.0371723002,-0.5791772489,9.6295602364
1520530731487819010,0.1653896880,-0.1615692146,-0.1322444686,0.0157406792,-0.5216226297,9.6196919340
1520530731492832010,0.1731781835,-0.1659507706,-0.1271519113,-0.0588185190,-0.4880408909,9.5471698369
1520530731497848010,0.1792109745,-0.1680026680,-0.1217677564,-0.0203363522,-0.4460739732,9.5827808108
1520530731502865010,0.1827495678,-0.1546048857,-0.1189665696,-0.0143235136,-0.4520701436,9.6884832321
1520530731507882010,0.1900580355,-0.1423777205,-0.1137463630,-0.0528056804,-0.4484697252,9.6772328463
1520530731512896010,0.1930903773,-0.1324803916,-0.1096181903,-0.0552108159,-0.4376772741,9.6470299895
1520530731517913010,0.1918429433,-0.1269496769,-0.1076797968,0.0097278406,-0.4316866296,9.6487163577
1520530731522929010,0.1895959436,-0.1179256554,-0.1046306758,-0.0540082481,-0.4640584571,9.6935297681
1520530731527945010,0.1858325299,-0.1144348884,-0.1029737225,-0.0010952688,-0.5072316333,9.6279767804
1520530731532961010,0.1790489121,-0.1138569630,-0.1021450372,0.0614382523,-0.4892493973,9.6017834104
1520530731537976010,0.1717590428,-0.1167794909,-0.0999893659,0.0049175698,-0.5120286633,9.6070043413
1520530731542992010,0.1642221831,-0.1176675246,-0.0959238450,0.0253612209,-0.5456061874,9.6498374232
1520530731548007010,0.1519077878,-0.1200114379,-0.0929427554,-0.0275517585,-0.5480003472,9.6317604811
1520530731553023010,0.1441158461,-0.1235213024,-0.0891673214,-0.0948955504,-0.4796440981,9.5788906900
1520530731558039010,0.1348302759,-0.1174197104,-0.0839629959,-0.0047029719,-0.4760537014,9.6640079553
1520530731563054010,0.1232979296,-0.1008313468,-0.0778628010,-0.0383748679,-0.4484708491,9.6991731207
1520530731568071010,0.1112601197,-0.0886241460,-0.0680073765,-0.0071081073,-0.3765248589,9.6976364850
1520530731573088010,0.1009800765,-0.0793388425,-0.0549308991,0.0518177106,-0.3177715675,9.7516264054
1520530731578103010,0.0886820802,-0.0738343127,-0.0448555929,0.1107435285,-0.2530225740,9.8021240473
1520530731583119010,0.0733672238,-0.0686194353,-0.0358590926,0.1287820442,-0.2014609406,9.8402489404
1520530731588135010,0.0570463331,-0.0651583578,-0.0249802428,0.1804924559,-0.1618933341,9.8699227776
1520530731593151010,0.0404748023,-0.0616995641,-0.0132892885,0.2791030083,-0.1187319589,9.8886773140
1520530731598166010,0.0256529934,-0.0646483555,-0.0024621468,0.3656878837,-0.1043490174,9.8785233662
1520530731603183010,0.0105788233,-0.0708134016,0.0123991960,0.4186008630,-0.0935608746,9.8942678350
1520530731608199010,-0.0032385391,-0.0746374096,0.0237588933,0.4354368110,-0.0851682029,9.9092036503
1520530731613213010,-0.0208303040,-0.0793246647,0.0305196420,0.3969546442,-0.0887626270,9.8921495608
1520530731618230010,-0.0346529824,-0.0843018275,0.0372711667,0.4017649151,-0.1235380739,9.9235145381
1520530731623246010,-0.0454578323,-0.0881144560,0.0448376208,0.4005623473,-0.1679061759,9.8387330001
1520530731628262010,-0.0582709167,-0.0901788366,0.0521506013,0.4390445142,-0.1906928411,9.7779491701
1520530731633277010,-0.0678063822,-0.0846673963,0.0600564064,0.4438547850,-0.1990871987,9.8116127099
1520530731638294010,-0.0725622028,-0.0771216781,0.0706743643,0.4546778944,-0.2014863225,9.7905911119
1520530731643309010,-0.0758015233,-0.0646283880,0.0837622273,0.4017649151,-0.2026813419,9.6586228930
1520530731648325010,-0.0828193822,-0.0562043033,0.0924972337,0.3356236908,-0.2134684544,9.6523043314
1520530731653341010,-0.0890872494,-0.0465961743,0.0944760849,0.3452442326,-0.2194649058,9.7335666144
1520530731658357010,-0.0951108157,-0.0431113925,0.0980310599,0.3789161285,-0.2134718262,9.7413680338
1520530731663372010,-0.0986086367,-0.0308870041,0.1027302439,0.3512570711,-0.1655040550,9.7078883019
1520530731668389010,-0.1076407440,-0.0201093210,0.1028293001,0.2730901698,-0.1786885118,9.7144727131
1520530731673404010,-0.1141596003,-0.0096242231,0.1037331036,0.2225823258,-0.1630957526,9.7103005482
1520530731678419010,-0.1214355168,-0.0000070183,0.1021967251,0.1636565079,-0.2014636568,9.7225329544
1520530731683436010,-0.1272008687,0.0116504689,0.1006731077,0.1408077214,-0.2722111622,9.7251486294
1520530731688452010,-0.1324656027,0.0218512303,0.0991374415,0.1480231276,-0.3033893752,9.7576488326
1520530731693467010,-0.1392474092,0.0265209225,0.0953979699,0.0782742003,-0.3057822238,9.7850593755
1520530731698483010,-0.1422577105,0.0323561728,0.0922014815,0.0746664971,-0.3177733470,9.7676740247
1520530731703499010,-0.1445163185,0.0352720457,0.0911457293,0.1155537994,-0.3069842677,9.7730762485
1520530731708514010,-0.1430057146,0.0355560082,0.0941211569,0.0734639294,-0.3225698151,9.7746632709
1520530731713530010,-0.1402331672,0.0375785721,0.1008952319,0.0049175698,-0.3177679147,9.8357572673
1520530731718547010,-0.1362087007,0.0363971269,0.1073719735,-0.0504005450,-0.3213610277,9.9199735727
1520530731723563010,-0.1309317860,0.0328880115,0.1127464132,-0.1369854203,-0.3285491267,9.9184990648
1520530731728578010,-0.1226365999,0.0320054521,0.1170530764,-0.2055317800,-0.3633188603,9.8808494134
1520530731733594010,-0.1128320330,0.0337525000,0.1189420340,-0.2151523217,-0.3920974812,9.7879996017
1520530731738610010,-0.1015254361,0.0314214837,0.1205265222,-0.2416088114,-0.4748361099,9.7685813501
1520530731743626010,-0.0919763903,0.0305481577,0.1215843010,-0.2921166553,-0.5323909165,9.7203190447
1520530731748641010,-0.0799240710,0.0256102731,0.1174659174,-0.3570553118,-0.5647626503,9.6477676208
1520530731753657010,-0.0671117394,0.0253355647,0.1131111571,-0.3955374786,-0.6079287084,9.5331320273
1520530731758673010,-0.0540432201,0.0306060019,0.1055516179,-0.4496530257,-0.6738772170,9.4512108478
1520530731763688010,-0.0392134058,0.0387968011,0.0958466754,-0.5230096562,-0.7278328228,9.4252481655
1520530731768705010,-0.0256374903,0.0487346867,0.0864279509,-0.5410481719,-0.8153686688,9.3766990571
1520530731773720010,-0.0148266460,0.0610156773,0.0721623189,-0.4809197862,-0.8729320922,9.3389813260
1520530731778736010,-0.0002415245,0.0765019176,0.0584552318,-0.4941480311,-0.8813250449,9.3739825856
1520530731783751010,0.0105698530,0.0911227256,0.0409608337,-0.4965531665,-0.8441515044,9.4378876637
1520530731788767010,0.0216269898,0.1031277272,0.0210110481,-0.4688941091,-0.8153742884,9.4771032777
1520530731793785010,0.0301626036,0.1090133975,0.0007486990,-0.3354090930,-0.7410379784,9.5547573063
1520530731798800010,0.0374359994,0.1090636008,-0.0168503192,-0.2067343477,-0.7626325277,9.6581188692
1520530731803816010,0.0424421152,0.1038628974,-0.0325913312,-0.2019240768,-0.6750956514,9.7649039310
1520530731808832010,0.0441750972,0.0934130789,-0.0472841077,-0.1754675872,-0.5791664781,9.8703079725
1520530731813846010,0.0408876460,0.0870406746,-0.0619364266,-0.1586316392,-0.5252064702,9.9084422319
1520530731818863010,0.0381045135,0.0838824383,-0.0798117757,-0.1273648786,-0.5120183607,9.9336922047
1520530731823878010,0.0365818779,0.0833456981,-0.0971283588,-0.1369854203,-0.5096193306,9.8931084681
1520530731828894010,0.0335559343,0.0851350728,-0.1128010816,-0.1297700141,-0.5491915265,9.8535639315
1520530731833911010,0.0312786926,0.0819661069,-0.1266191757,-0.0732493316,-0.5743778775,9.7821475688
1520530731838926010,0.0292510718,0.0752904270,-0.1366767710,-0.0985032535,-0.6151466850,9.7092180634
1520530731843943010,0.0267209435,0.0694923460,-0.1480794931,-0.1959112383,-0.6918840856,9.6463230932
1520530731848959010,0.0257030971,0.0674850399,-0.1602677532,-0.3414219315,-0.8633498333,9.6293123172
1520530731853974010,0.0272023358,0.0704409965,-0.1756694387,-0.3919297755,-0.9700693973,9.6612858876
1520530731858989010,0.0266908741,0.0725190981,-0.1899918762,-0.2981294939,-0.9712758432,9.7091841086
1520530731864005010,0.0261802828,0.0716673290,-0.1983845347,-0.3342065253,-0.9688747525,9.7327758007
1520530731869022010,0.0291831196,0.0658568454,-0.2043866068,-0.2752807073,-0.9101214611,9.7670092739
1520530731874038010,0.0299194291,0.0571345442,-0.2114888929,-0.3269911190,-0.9065200125,9.7988869701
1520530731879053010,0.0298960870,0.0472602496,-0.2237390431,-0.3931323432,-0.9364933718,9.8820722024
1520530731884068010,0.0266029199,0.0379798276,-0.2405779599,-0.3991451818,-1.0324241374,9.9775200791
1520530731889085010,0.0215478500,0.0284153445,-0.2603918377,-0.4448427549,-1.0767887739,9.9977645840
1520530731894100010,0.0154908387,0.0205958611,-0.2791083265,-0.4231965360,-1.0911801449,10.0696208502
1520530731899116010,0.0064200449,0.0139400059,-0.2975397763,-0.4268042392,-1.0695953363,10.1347149787
1520530731904132010,-0.0021540045,0.0023278969,-0.3149277685,-0.4700966768,-1.0851807900,10.1165572589
1520530731909149010,-0.0127279299,-0.0017097305,-0.3319836807,-0.4749069477,-1.0576001857,10.0166328043
1520530731914164010,-0.0243005428,-0.0022569648,-0.3468466819,-0.4412350517,-1.0384165614,9.9012341018
1520530731919180010,-0.0346017992,0.0050498352,-0.3565116214,-0.4676915414,-1.0372153604,9.7492495857
1520530731924196010,-0.0443938168,0.0164325734,-0.3647936416,-0.5157942499,-1.0815798097,9.6114659229
1520530731929211010,-0.0509158212,0.0319039876,-0.3760266109,-0.5278199271,-1.0911719965,9.5267558196
1520530731934228010,-0.0604562263,0.0456273701,-0.3878084098,-0.4640838383,-1.0947743817,9.4726803377
1520530731939243010,-0.0689908716,0.0570076868,-0.3950105801,-0.2596473271,-0.9904650871,9.4973180565
1520530731944258010,-0.0757659978,0.0639968003,-0.3944035327,0.2646721958,-0.6331620767,9.6080805843
1520530731949275010,-0.0790460318,0.0400378872,-0.3707717195,0.9597563339,-0.0876073195,9.8785354173
1520530731954290010,-0.0745648329,-0.0192381467,-0.3241564209,1.5333811330,0.4195844038,10.1106969855
1520530731959307010,-0.0698441905,-0.0948658519,-0.2649504248,1.7474381859,0.8188814934,10.3325178787
1520530731964321010,-0.0643579570,-0.1649707958,-0.2005632182,1.7582612953,1.0467173309,10.3775139729
1520530731969338010,-0.0523053048,-0.2094240573,-0.1386979738,1.7137662899,1.1786262429,10.2697390450
1520530731974355010,-0.0357021090,-0.2267447345,-0.0885384029,1.5586350549,1.2302013632,10.2119293740
1520530731979371010,-0.0178190887,-0.2221899554,-0.0460602652,1.3229317832,1.2254231589,10.0062044746
1520530731984386010,0.0003375063,-0.1960493130,-0.0120755547,1.1726108191,1.1366984750,9.8473782721
1520530731989402010,0.0252827883,-0.1631859574,0.0151840380,1.0691899958,1.0107967853,9.6056196011
1520530731994416010,0.0469604406,-0.1297360137,0.0405603229,1.0066564747,0.9376540898,9.3680600831
1520530731999433010,0.0723995660,-0.1029900794,0.0672312055,0.8647534845,0.8777081205,9.3148789809
1520530732004449010,0.0932878656,-0.0940094471,0.0897166925,0.8623483491,0.7781796527,9.2882701352
1520530732009465010,0.1164296257,-0.0917326864,0.1132290316,0.8214610469,0.6186971608,9.3562279786
1520530732014480010,0.1375471365,-0.0996551719,0.1366672964,0.7998148280,0.5263650341,9.4355544976
1520530732019497010,0.1576667558,-0.1020410168,0.1598791209,0.6987991402,0.4244459655,9.5563379435
1520530732024513010,0.1752678119,-0.1038239526,0.1752542279,0.5172114155,0.3057452063,9.7441642043
1520530732029529010,0.1916215712,-0.0980277409,0.1893367392,0.4125880245,0.1642547847,9.8673456414
1520530732034544010,0.2072267266,-0.0834684357,0.1953709663,0.2466336801,0.0047820335,9.9341965228
1520530732039560010,0.2157976398,-0.0624795748,0.1933507927,0.1432128568,-0.1067299711,10.0166619830
1520530732044575010,0.2215941550,-0.0458487247,0.1861620347,-0.0299568939,-0.2470159136,10.1149422720
1520530732049591010,0.2261204939,-0.0391247123,0.1786294796,-0.0900852795,-0.3885098006,10.1365840980
1520530732054607010,0.2263699149,-0.0353133052,0.1700004443,-0.0888827118,-0.5276101834,10.1460051879
1520530732059622010,0.2256080757,-0.0335310571,0.1572995259,-0.1634419100,-0.5923579593,10.1456319018
1520530732064638010,0.2190613963,-0.0337834809,0.1418883215,-0.2476216499,-0.6379187392,10.2092514642
1520530732069655010,0.2079836383,-0.0398660959,0.1267116024,-0.3101551710,-0.7218536985,10.2448062995
1520530732074671010,0.1958987992,-0.0450647531,0.1077557768,-0.3919297755,-0.7794060700,10.3944127977
1520530732079686010,0.1802976741,-0.0467587047,0.0853160658,-0.4256016715,-0.7901957113,10.3656974645
1520530732084702010,0.1626896788,-0.0455381418,0.0623612276,-0.4292093746,-0.7913945707,10.3041401194
1520530732089718010,0.1443354789,-0.0414164124,0.0440293007,-0.3426244993,-0.7362408548,10.3264864449
1520530732094733010,0.1224654712,-0.0355477542,0.0257172464,-0.2548370562,-0.7026717601,10.2058984070
1520530732099750010,0.1026043956,-0.0331858491,0.0114329697,-0.1658470455,-0.6691027591,10.2421880978
1520530732104765010,0.0804801722,-0.0343323709,0.0011844050,-0.0900852795,-0.5995585151,10.2994900553
1520530732109782010,0.0550747271,-0.0439208543,-0.0126396584,0.0806793357,-0.5000431597,10.2558936998
1520530732114796010,0.0339365125,-0.0608090311,-0.0203046777,0.1732770496,-0.3429629760,10.2315963479
1520530732119814010,0.0165756878,-0.0762584761,-0.0206608432,0.2310002998,-0.2062654634,10.1402539721
1520530732124830010,0.0009779145,-0.0887933865,-0.0209980450,0.2742927375,-0.1079393205,10.0490894758
1520530732129845010,-0.0110851429,-0.0928935213,-0.0150547557,0.2875209823,-0.0180048190,9.9861172462
1520530732134860010,-0.0171063883,-0.0917580265,-0.0047539180,0.2971415240,0.0539428571,9.8174425721
1520530732139877010,-0.0193543211,-0.0868286854,0.0039455436,0.2754953052,0.0875204749,9.7327840129
1520530732144892010,-0.0200913403,-0.0807383145,0.0145449186,0.2875209823,0.0671341511,9.6931739467
1520530732149909010,-0.0208323190,-0.0775617889,0.0251220626,0.2947363886,0.0371550785,9.6187557367
1520530732154924010,-0.0190616699,-0.0740870667,0.0335323953,0.2694824666,-0.0048128694,9.5586109842
1520530732159940010,-0.0147774993,-0.0682715426,0.0387092948,0.2839132792,-0.0527796103,9.5166801147
1520530732164954010,-0.0130083398,-0.0636210843,0.0433408773,0.2406208415,-0.1463091915,9.4811662426
1520530732169971010,-0.0102209105,-0.0464275858,0.0431963595,0.1756821850,-0.2422353678,9.4412168244
1520530732174988010,-0.0071819118,-0.0266006016,0.0390131943,0.1011229868,-0.3873255521,9.3967604138
1520530732180004010,-0.0043894604,-0.0032771015,0.0348571728,0.0001072989,-0.4628635313,9.3350615333
1520530732185019010,-0.0038594433,0.0206333806,0.0288159767,-0.0528056804,-0.5683837676,9.3426523214
1520530732190035010,-0.0030827418,0.0430957796,0.0195166478,-0.1189469046,-0.6511193055,9.4107811333
1520530732195050010,-0.0043148470,0.0667229292,0.0102299450,-0.1237571755,-0.6319326841,9.4247549715
1520530732200067010,-0.0088221051,0.0854003608,-0.0009823042,-0.1562265037,-0.6139430489,9.4320263317
1520530732205082010,-0.0130786799,0.1037872348,-0.0124677890,-0.2103420508,-0.5995491491,9.4871597930
1520530732210098010,-0.0190897243,0.1265485581,-0.0255399359,-0.2367985405,-0.5587763142,9.5164311456
1520530732215113010,-0.0256001164,0.1495915995,-0.0350918296,-0.2139497540,-0.5264013023,9.5522036399
1520530732220131010,-0.0311127933,0.1668058872,-0.0441489602,-0.1345802849,-0.4376710925,9.5769117421
1520530732225146010,-0.0383831664,0.1805024754,-0.0456542155,-0.0792621701,-0.3465407287,9.6436887890
1520530732230162010,-0.0433934927,0.1874733388,-0.0380162419,0.0061201375,-0.2446204426,9.7043519658
1520530732235178010,-0.0509196771,0.1885987733,-0.0241955072,0.1347948828,-0.1918682856,9.7402366803
1520530732240194010,-0.0546869014,0.1792234583,-0.0058625242,0.1961258361,-0.0803530028,9.7836924442
1520530732245208010,-0.0559445757,0.1648846644,0.0164861876,0.2634696281,-0.0084098224,9.8782626049
1520530732250225010,-0.0584535183,0.1508207373,0.0447914658,0.3235980137,0.0587373583,9.8938818844
1520530732255241010,-0.0584511858,0.1364707807,0.0714665783,0.3332185554,0.1318841749,9.9134733615
1520530732260257010,-0.0561984585,0.1183541076,0.0905333052,0.3524596388,0.1270861146,9.9958029787
1520530732265272010,-0.0539411090,0.1046125728,0.1080101029,0.2682798989,0.0875210368,10.0733624218
1520530732270289010,-0.0516920629,0.0891423986,0.1181688229,0.1143512317,-0.0791474935,10.0018081381
1520530732275303010,-0.0439281483,0.0713782789,0.1153132873,0.1444154245,-0.1439034179,9.9202285792
1520530732280319010,-0.0336419619,0.0606091008,0.1122358926,0.0686536586,-0.1846682917,9.9779508091
1520530732285337010,-0.0173256581,0.0495530864,0.1083334358,-0.0540082481,-0.2721959893,9.8455835318
1520530732290351010,-0.0057902342,0.0344180033,0.1035970859,-0.0071081073,-0.3117712760,9.8010041526
1520530732295366010,0.0125429249,0.0271464048,0.1013430708,-0.0443877064,-0.3129675130,9.7188559579
1520530732300383010,0.0321307317,0.0190033303,0.0982684151,-0.0912878472,-0.3141630007,9.6809628740
1520530732305399010,0.0492050288,0.0129098894,0.0911557999,-0.2235702957,-0.2913690300,9.6659581974
1520530732310415010,0.0682909514,0.0088620269,0.0821611911,-0.2933192230,-0.3585154615,9.5923253606
1520530732315430010,0.0823561862,0.0121121055,0.0675500302,-0.3582578795,-0.3860906336,9.5860114647
1520530732320448010,0.0939133214,0.0209062467,0.0497392244,-0.5109839791,-0.4688194280,9.5829301155
1520530732325463010,0.1077215923,0.0238823246,0.0286332056,-0.4700966768,-0.5359744761,9.6604612715
1520530732330478010,0.1142424168,0.0268548189,0.0078112676,-0.4725018123,-0.5899356079,9.7174823556
1520530732335494010,0.1220208292,0.0283606849,-0.0092364768,-0.5025660051,-0.6522885684,9.8015101524
1520530732340510010,0.1265210072,0.0220000739,-0.0271498148,-0.4243991037,-0.6331084095,9.8809185471
1520530732345524010,0.1335423044,0.0185404526,-0.0399052172,-0.3462322024,-0.6127291102,9.9103535825
1520530732350542010,0.1350260927,0.0072054556,-0.0505460078,-0.2632550302,-0.4976180921,9.9675408747
1520530732355557010,0.1365123822,-0.0047232370,-0.0571330562,-0.1574290715,-0.4208813471,9.9768952876
1520530732360573010,0.1405189520,-0.0155043460,-0.0566816861,0.0001072989,-0.3309580848,9.9438963380
1520530732365588010,0.1437693788,-0.0289125818,-0.0546256483,0.1107435285,-0.2734079612,9.9102233138
1520530732370605010,0.1462686809,-0.0402814213,-0.0525526487,0.2358105707,-0.1978718551,9.8159608033
1520530732375620010,0.1485225727,-0.0499137069,-0.0461371095,0.3175851752,-0.1043452710,9.7453450137
1520530732380637010,0.1510288178,-0.0592566949,-0.0389081763,0.3380288263,-0.0048182080,9.6927524947
1520530732385653010,0.1527807744,-0.0674278842,-0.0341038636,0.4149931599,0.0587302402,9.5966455918
1520530732390668010,0.1540298276,-0.0750128593,-0.0306469008,0.3644853160,0.0347513654,9.5774041438
1520530732395683010,0.1537744319,-0.0799752358,-0.0274376758,0.3356236908,0.0587364217,9.5102573290
1520530732400700010,0.1537686219,-0.0852245279,-0.0258544159,0.3392313940,0.0743249662,9.4823155575
1520530732405717010,0.1527602981,-0.0893123179,-0.0229076674,0.3572699097,0.0491416125,9.4380030675
1520530732410732010,0.1525025737,-0.0948523645,-0.0215967098,0.3284082846,0.0491438603,9.4336354131
1520530732415746010,0.1535015590,-0.1018561258,-0.0175937423,0.3644853160,0.0287556633,9.4414391478
1520530732420764010,0.1547543092,-0.1062336857,-0.0149239632,0.3560673420,0.0527391274,9.4414976964
1520530732425779010,0.1570199504,-0.1062459114,-0.0100583376,0.2466336801,0.0851244419,9.4099912537
1520530732430795010,0.1592999756,-0.0966468182,-0.0034960748,0.1432128568,0.1594792029,9.3586289116
1520530732435811010,0.1593209576,-0.0826669168,-0.0009544536,0.0890973097,0.1091195198,9.2999354097
1520530732440827010,0.1621162552,-0.0622798434,0.0032542168,0.0506151429,0.0023990192,9.2585768603
1520530732445842010,0.1649061034,-0.0436308790,0.0036619062,-0.0564133836,-0.0875281768,9.4270550402
1520530732450859010,0.1639116030,-0.0343004121,0.0012999988,-0.2055317800,-0.2410065372,9.6610849335
1520530732455873010,0.1633998199,-0.0374898133,-0.0046755314,-0.3221808481,-0.3585132136,9.9145201572
1520530732460890010,0.1563456932,-0.0450438011,-0.0139188238,-0.3690809889,-0.4592373565,10.1568008214
1520530732465904010,0.1457634918,-0.0569568235,-0.0280587546,-0.3726886921,-0.4808216031,10.2730713801
1520530732470922010,0.1326679963,-0.0682844192,-0.0435423013,-0.3342065253,-0.4220667195,10.3865296282
1520530732475937010,0.1155552831,-0.0769911294,-0.0589983728,-0.1826829934,-0.3345412697,10.3919422931
1520530732480954010,0.0954352914,-0.0825069030,-0.0695545635,0.0421971689,-0.1750731078,10.3791386298
1520530732485969010,0.0780893407,-0.0857123704,-0.0719817266,0.1901129976,-0.0203955134,10.3577916159
1520530732490987010,0.0549584008,-0.0973913780,-0.0666167935,0.3103697689,0.0815220566,10.3809267394
1520530732496000010,0.0335921745,-0.1085029529,-0.0552986717,0.4679061393,0.1582547743,10.3828049712
1520530732501017010,0.0114754312,-0.1202114323,-0.0388432238,0.5184139832,0.1570517001,10.2742351404
1520530732506032010,-0.0048674727,-0.1386296895,-0.0186619989,0.5015780352,0.1618495731,10.1628285142
1520530732511047010,-0.0176928084,-0.1573372244,0.0012399228,0.4847420873,0.1858336928,10.0955646489
1520530732516063010,-0.0275037030,-0.1772105728,0.0216684433,0.3885366702,0.1522652537,10.0546966126
1520530732521080010,-0.0315284714,-0.1903703429,0.0386202634,0.3813212639,0.0755208286,9.9862751873
1520530732526095010,-0.0358062950,-0.2035243841,0.0534081832,0.2971415240,0.0383540316,9.9383207447
1520530732531111010,-0.0373227286,-0.2163750313,0.0641350036,0.1636565079,0.0395635683,9.9338081169
1520530732536127010,-0.0353225977,-0.2271700398,0.0694599336,0.0674510909,0.0011985676,9.9173497809
1520530732541143010,-0.0333154649,-0.2303781241,0.0707844753,-0.0528056804,-0.0251731558,9.8964652769
1520530732546158010,-0.0295429912,-0.2283376840,0.0710635820,-0.1033135244,-0.0611434347,9.8539926431
1520530732551175010,-0.0252634741,-0.2222140215,0.0700201489,-0.0467928419,-0.0383641687,9.8325016969
1520530732556190010,-0.0214859862,-0.2169705369,0.0711353472,0.0205509501,-0.0239797286,9.8318321816
1520530732561206010,-0.0156954692,-0.2102715273,0.0730695648,0.0674510909,-0.0131911175,9.8418244560
1520530732566222010,-0.0131765493,-0.2088267318,0.0779458391,0.0253612209,-0.0095904181,9.9142835501
1520530732571238010,-0.0089036421,-0.2114620875,0.0833288149,0.0542228460,-0.0155883681,9.8710091491
1520530732576254010,-0.0063862198,-0.2117685129,0.0892739343,0.0590331169,-0.0395715512,9.8651749959
1520530732581270010,-0.0038614076,-0.2071235867,0.0960684838,0.0915024451,-0.0515654843,9.8625463649
1520530732586285010,-0.0043494096,-0.2004401503,0.1028841957,-0.0516031127,-0.1163079216,9.8512188274
1520530732591301010,-0.0040852204,-0.1911164754,0.1032254136,-0.0924904150,-0.1007159116,9.8457908781
1520530732596316010,-0.0035594296,-0.1712897473,0.0987763697,-0.0479954096,-0.1402910110,9.8093699167
1520530732601334010,-0.0055500495,-0.1505745531,0.0886571985,0.0049175698,-0.2062478554,9.8507563902
1520530732606349010,-0.0067788145,-0.1257876929,0.0815437552,0.0626408200,-0.2218411765,9.8432368852
1520530732611365010,-0.0087604175,-0.0992484504,0.0728217751,0.1059332577,-0.3057843779,9.8219787657
1520530732616380010,-0.0167815899,-0.0767814845,0.0605627766,0.1516308308,-0.3477578518,9.8238991883
1520530732621396010,-0.0207777548,-0.0502291894,0.0467041584,0.2382157061,-0.3717474038,9.7545133178
1520530732626412010,-0.0207509822,-0.0219262834,0.0325808652,0.3019517949,-0.3777480699,9.7108994702
1520530732631428010,-0.0199702739,0.0046205981,0.0214188382,0.4137905922,-0.3957438867,9.6586941060
1520530732636444010,-0.0166835283,0.0262156555,0.0099438055,0.4919574935,-0.3981482554,9.6800163512
1520530732641460010,-0.0156616868,0.0443081136,0.0003401177,0.5388576343,-0.3669742571,9.7492580884
1520530732646475010,-0.0151492215,0.0562762006,-0.0074155002,0.5593012855,-0.3801663940,9.7246669421
1520530732651492010,-0.0161551499,0.0612541104,-0.0165744014,0.6567092702,-0.3525937507,9.7039354905
1520530732656508010,-0.0138979806,0.0621480893,-0.0236061259,0.6843683276,-0.3334096581,9.6734318220
1520530732661524010,-0.0106359767,0.0595312791,-0.0252554765,0.7180402236,-0.3274165785,9.6393960591
1520530732666538010,-0.0083857662,0.0525454924,-0.0277479441,0.7625352289,-0.3070346567,9.6075652064
1520530732671555010,-0.0073911717,0.0455562997,-0.0291558945,0.8310815886,-0.3070399953,9.6196816017
1520530732676570010,-0.0046399121,0.0341853734,-0.0262717239,0.8563355106,-0.3118385239,9.6763855266
1520530732681586010,-0.0064112396,0.0233954440,-0.0233747062,0.8226636146,-0.2830565312,9.7580352809
1520530732686602010,-0.0076845014,0.0091083687,-0.0202347530,0.7372813070,-0.2614653538,9.8064931939
1520530732691618010,-0.0119688563,0.0000737746,-0.0202957343,0.6314553482,-0.2422708649,9.8818817425
1520530732696633010,-0.0164943522,-0.0034333531,-0.0170674596,0.6134168325,-0.1631261921,9.9214930364
1520530732701650010,-0.0197561013,-0.0040370697,-0.0097610992,0.6591144056,-0.1259563980,9.9291470024
1520530732706666010,-0.0247689328,0.0020640107,-0.0037530702,0.5929731814,-0.0791847702,9.8995294335
1520530732711681010,-0.0275049929,0.0160187909,0.0077216995,0.5087934415,-0.0515979843,9.8747547256
1520530732716697010,-0.0279776936,0.0305543126,0.0202788984,0.3969546442,-0.0383987292,9.8339932508
1520530732721713010,-0.0266865979,0.0474165006,0.0347444362,0.3741058577,-0.0743711624,9.8354128710
1520530732726730010,-0.0286702592,0.0596203553,0.0472866508,0.3704981545,-0.0887605665,9.8261648666
1520530732731746010,-0.0314109808,0.0709563169,0.0573886832,0.3524596388,-0.1175385318,9.8345035143
1520530732736761010,-0.0336496770,0.0817089779,0.0677558819,0.2791030083,-0.1523078908,9.8015492589
1520530732741777010,-0.0303542517,0.0980066668,0.0757201383,0.2502413832,-0.1834832940,9.7274833700
1520530732746792010,-0.0308396975,0.1081940019,0.0798570682,0.2189746227,-0.2410395991,9.7301681177
1520530732751808010,-0.0283086322,0.1195502419,0.0831856520,0.2803055761,-0.2218581290,9.6667966768
1520530732756824010,-0.0245313639,0.1247944549,0.0840303044,0.3211928783,-0.2518398240,9.6664279384
1520530732761840010,-0.0222640878,0.1285818830,0.0845960958,0.3175851752,-0.2818180536,9.7362209243
1520530732766855010,-0.0200065305,0.1268402894,0.0824141896,0.3753084254,-0.2686320047,9.7426190826
1520530732771872010,-0.0210157677,0.1259752116,0.0788922906,0.3500545034,-0.2518420719,9.7800371245
1520530732776888010,-0.0220279531,0.1227783291,0.0756231528,0.3620801805,-0.2722283957,9.8043449758
1520530732781903010,-0.0220206454,0.1297788421,0.0729710479,0.1768847527,-0.2614217082,9.7259490976
1520530732786920010,-0.0207736857,0.1274693826,0.0651050986,0.2334054352,-0.2566295485,9.5859370081
1520530732791935010,-0.0170136946,0.1248680664,0.0577733508,0.2839132792,-0.2770188695,9.5529252437
1520530732796950010,-0.0114957995,0.1213932857,0.0504316667,0.3488519357,-0.2482445569,9.5022929165
1520530732801966010,-0.0034470077,0.1319095891,0.0418392939,0.1828975913,-0.2302445255,9.4667020677
1520530732806982010,0.0048340415,0.1316593320,0.0277532824,0.1215666379,-0.2566208382,9.3952718259
1520530732811998010,0.0093549389,0.1395721923,0.0115721509,0.1768847527,-0.2914002188,9.4981981160
1520530732817013010,0.0186497143,0.1439771972,0.0002253008,0.1420102891,-0.2626181325,9.4787530513
1520530732822030010,0.0236623262,0.1378768451,-0.0060532741,0.2177720550,-0.2422386459,9.5093736408
1520530732827046010,0.0289294399,0.1308878693,-0.0069280670,0.2225823258,-0.1702905951,9.6661460940
1520530732832062010,0.0266583728,0.1215517519,-0.0029368168,0.3512570711,-0.1319281232,9.7218012879
1520530732837077010,0.0231447486,0.1189009608,0.0070599077,0.2646721958,-0.1115359925,9.8307035609
1520530732842093010,0.0251557390,0.1133384905,0.0170241335,0.2502413832,-0.0959460430,9.7843430620
1520530732847108010,0.0244033204,0.1077720234,0.0280756768,0.2586593572,-0.1547045794,9.8586956373
1520530732852125010,0.0261520152,0.0949284836,0.0366320626,0.2502413832,-0.1966738386,9.8378999084
1520530732857141010,0.0263820105,0.0756811778,0.0424368820,0.2766978729,-0.2098664438,9.8376552599
1520530732862155010,0.0354204845,0.0648823702,0.0501836568,0.2754953052,-0.2050697884,9.8295272799
1520530732867172010,0.0409294292,0.0476804658,0.0546415070,0.3272057169,-0.2170652200,9.7651177384
1520530732872188010,0.0464447093,0.0351407138,0.0591349267,0.3416365294,-0.1738972887,9.7021794080
1520530732877205010,0.0502041594,0.0272726231,0.0598795402,0.2863184146,-0.1726938399,9.5911508516
1520530732882221010,0.0552237182,0.0246616010,0.0563331014,0.2141643518,-0.2170564160,9.4966006163
1520530732887236010,0.0609944097,0.0229381397,0.0479221054,0.1672642110,-0.2746115036,9.4134388771
1520530732892252010,0.0670137616,0.0197600395,0.0386878897,0.1432128568,-0.3081855623,9.4125435758
1520530732897266010,0.0730319256,0.0157077857,0.0294470047,0.1516308308,-0.3441604306,9.4926846534
1520530732902283010,0.0775366669,0.0081612406,0.0191000594,0.1588462370,-0.3417627117,9.5228278272
1520530732907299010,0.0825443156,0.0014919597,0.0076766663,0.1456179922,-0.3177788730,9.5206089081
1520530732912314010,0.0855402486,-0.0081006953,-0.0005186730,0.1720744819,-0.3441620228,9.5668628805
1520530732917331010,0.0855189216,-0.0197378656,-0.0073712439,0.1913155653,-0.3405661001,9.6398871607
1520530732922346010,0.0857534606,-0.0310973932,-0.0090816863,0.2129617841,-0.3021952924,9.6408011948
1520530732927364010,0.0839865750,-0.0392677756,-0.0050824772,0.2057463779,-0.2710170794,9.7384611144
1520530732932378010,0.0812152860,-0.0468557828,-0.0010769550,0.2129617841,-0.2134589011,9.7499561954
1520530732937395010,0.0774407815,-0.0529872611,0.0029415495,0.2646721958,-0.2206577710,9.7599191896
1520530732942410010,0.0721779685,-0.0468906497,0.0105733206,0.1504282631,-0.1738823968,9.7412291185
1520530732947425010,0.0664135732,-0.0387487160,0.0160572195,0.0518177106,-0.1367013635,9.7723684264
1520530732952441010,0.0629085817,-0.0314764077,0.0201775192,0.0590331169,-0.1379010659,9.7827586610
1520530732957458010,0.0568962788,-0.0195407462,0.0235264178,0.0794767680,-0.1019284454,9.7534709960
1520530732962472010,0.0486229881,-0.0079009975,0.0282300233,0.1492256953,-0.0863450522,9.6853725520
1520530732967489010,0.0438637019,0.0008270128,0.0326343180,0.2586593572,-0.0719638902,9.6924283674
1520530732972504010,0.0363325582,0.0028469969,0.0388864369,0.2574567895,-0.0611715327,9.7377531626
1520530732977521010,0.0298064334,0.0045752619,0.0454050117,0.2574567895,-0.0371887243,9.7795669582
1520530732982537010,0.0217621344,-0.0006873788,0.0507908492,0.2598619249,-0.0036129797,9.8108886934
1520530732987553010,0.0117062177,-0.0050686408,0.0532110849,0.2538490864,-0.0156039157,9.8074724802
1520530732992568010,0.0029114605,-0.0053671134,0.0545779266,0.2394182738,-0.0072088088,9.8389826422
1520530732997583010,-0.0096456519,-0.0004221414,0.0559917847,0.2165694873,0.0311654643,9.9065719688
1520530733002600010,-0.0221998162,0.0068546353,0.0571528816,0.2237848935,0.0551477108,9.9332076626
1520530733007616010,-0.0327452168,0.0132595029,0.0577624836,0.2045438101,0.0503526477,9.9845339549
1520530733012631010,-0.0463085320,0.0190855190,0.0564794189,0.2237848935,0.0359614640,9.9460099555
1520530733017648010,-0.0598766458,0.0202442836,0.0570546061,0.2971415240,0.0287609083,9.9755187060
1520530733022663010,-0.0689164136,0.0234372279,0.0603424128,0.2634696281,0.0107764244,9.9131082141
1520530733027679010,-0.0792156237,0.0242978752,0.0638853144,0.2983440917,-0.0060142577,9.8895422591
1520530733032695010,-0.0902695653,0.0248682994,0.0668863013,0.3079646335,-0.0120107091,9.8429687072
1520530733037711010,-0.0990621742,0.0233919054,0.0728435309,0.2875209823,-0.0527798913,9.8048567002
1520530733042728010,-0.1055858840,0.0251121576,0.0823381105,0.2310002998,-0.0575720509,9.7984386515
1520530733047742010,-0.1093517636,0.0259768216,0.0853277855,0.1744796173,-0.1187238105,9.7630219629
1520530733052757010,-0.1088497344,0.0268569995,0.0831691541,0.1071358254,-0.1151211443,9.6858102931
1520530733057775010,-0.1058422323,0.0251288131,0.0761160216,0.0494125752,-0.1163157890,9.6538332744
1520530733062789010,-0.1008240298,0.0242784815,0.0679836410,0.0975152837,-0.0863410248,9.6196336640
1520530733067806010,-0.0945502114,0.0234315560,0.0587667432,0.1624539402,-0.0731555378,9.6236373040
1520530733072822010,-0.0897794344,0.0260806540,0.0495793228,0.1540359662,-0.0443755120,9.6550690620
1520530733077838010,-0.0809954857,0.0237807041,0.0392644588,0.1792898882,-0.0407800576,9.6652790434
1520530733082853010,-0.0724581784,0.0226359959,0.0327465963,0.2033412424,-0.0060068586,9.7707661313
1520530733087869010,-0.0651786001,0.0194460046,0.0281093272,0.2213797581,0.0443556343,9.8077300497
1520530733092884010,-0.0596612814,0.0139242479,0.0234575404,0.2322028675,0.0503504935,9.8436453201
1520530733097900010,-0.0586653657,0.0083941632,0.0212490677,0.2334054352,0.0551469615,9.9191682947
1520530733102917010,-0.0609369502,0.0025721424,0.0187738935,0.2442285447,0.0107779229,9.9353762301
1520530733107932010,-0.0632073077,-0.0041320447,0.0192680548,0.2105566487,-0.0455790545,9.9462182262
1520530733112947010,-0.0664827351,-0.0131786283,0.0238044868,0.1841001590,-0.0599666790,9.9476519135
1520530733117964010,-0.0730157637,-0.0152325347,0.0281297944,0.1684667787,-0.1031345167,9.9118197129
1520530733122980010,-0.0790417058,-0.0134960601,0.0316714309,0.1083383931,-0.1391040464,9.8799000152
1520530733127996010,-0.0828074051,-0.0108758046,0.0319689854,0.1275794765,-0.1678849151,9.7960664337
1520530733133011010,-0.0868261124,-0.0070791830,0.0282177105,0.0999204191,-0.2026578332,9.7638295301
1520530733138028010,-0.0900912369,-0.0056228118,0.0279643475,0.0878947420,-0.2350336881,9.7500324254
1520530733143043010,-0.0936087972,-0.0024065771,0.0233960553,0.0915024451,-0.2314365478,9.7209402033
1520530733148058010,-0.0968759799,0.0011055112,0.0172062441,0.0987178514,-0.2446276544,9.7627200181
1520530733153076010,-0.0971337866,-0.0023853741,0.0150156666,0.0866921743,-0.2626138241,9.7675031846
1520530733158092010,-0.0986447433,-0.0032535625,0.0125768847,0.0866921743,-0.2266396114,9.7756031121
1520530733163105010,-0.1009058173,-0.0029637925,0.0128538542,0.1432128568,-0.2206483113,9.7773714156
1520530733168123010,-0.1061848569,-0.0058869897,0.0155468835,0.1311871796,-0.2338379194,9.7937713443
1520530733173139010,-0.1061865270,-0.0064668450,0.0144602537,0.1047306900,-0.2446281227,9.7882286598
1520530733178154010,-0.1092022031,-0.0073458222,0.0158119146,0.1624539402,-0.3249750267,9.8400416408
1520530733183170010,-0.1164861330,-0.0058975822,0.0180009322,0.1901129976,-0.3057909341,9.8269701315
1520530733188187010,-0.1202538552,-0.0044414080,0.0177485026,0.1552385339,-0.3405632903,9.7994520341
1520530733193202010,-0.1235159884,-0.0009460736,0.0177812470,0.0939075805,-0.3489524966,9.7314906841
1520530733198218010,-0.1270272603,0.0057616765,0.0151334531,0.0818819034,-0.3441549983,9.7164951859
1520530733203233010,-0.1310446425,0.0124808845,0.0081578583,0.0433997366,-0.3441520012,9.6424925346
1520530733208250010,-0.1307943865,0.0165822193,0.0000721379,0.0927050128,-0.3261687349,9.6350222235
1520530733213264010,-0.1325575555,0.0189366445,-0.0088348249,0.0854896066,-0.3597441048,9.6618545063
1520530733218281010,-0.1320669543,0.0154642653,-0.0177904499,0.0746664971,-0.3249681896,9.6433316377
1520530733223297010,-0.1320761789,0.0140313809,-0.0267295799,0.1035281222,-0.2662125567,9.6151019638
1520530733228312010,-0.1315846133,0.0099704052,-0.0335252839,0.0927050128,-0.2722074158,9.6384560351
1520530733233329010,-0.1273285363,0.0024150205,-0.0406252118,0.1047306900,-0.2542212461,9.6325107246
1520530733238344010,-0.1248255254,-0.0013559683,-0.0466107888,0.0999204191,-0.2398311864,9.6360299447
1520530733243360010,-0.1213197852,-0.0077526662,-0.0512655110,0.1119460962,-0.2338364208,9.6347449034
1520530733248375010,-0.1165606323,-0.0170656309,-0.0548626142,0.1468205599,-0.2362374178,9.6530020988
1520530733253392010,-0.1132991537,-0.0190953014,-0.0581307939,0.1841001590,-0.2242489171,9.6944647310
1520530733258408010,-0.1072758109,-0.0240428333,-0.0595325172,0.1853027267,-0.2410369766,9.6956315406
1520530733263423010,-0.1012514056,-0.0257742089,-0.0649679750,0.2454311124,-0.2326476767,9.6845788068
1520530733268440010,-0.0942187275,-0.0260519102,-0.0690414548,0.2586593572,-0.2014710559,9.6983653758
1520530733273455010,-0.0871780047,-0.0228439237,-0.0690300691,0.2201771904,-0.1463075993,9.7405233304
1520530733278471010,-0.0798906444,-0.0222546573,-0.0703918874,0.2526465187,-0.0911496687,9.7320184966
1520530733283487010,-0.0776213023,-0.0175959893,-0.0687372431,0.2766978729,-0.0695670142,9.7666276660
1520530733288503010,-0.0728360277,-0.0120680107,-0.0649162297,0.2213797581,-0.0515755995,9.7834185738
1520530733293518010,-0.0657975121,-0.0132431754,-0.0603389101,0.1889104299,-0.0575687728,9.7512004263
1520530733298533010,-0.0600214733,-0.0184967588,-0.0563314718,0.2105566487,-0.0755575651,9.7637908589
1520530733303550010,-0.0550018360,-0.0246204207,-0.0539525780,0.1865052944,-0.0827505344,9.7605455442
1520530733308566010,-0.0464663007,-0.0316132156,-0.0529396170,0.1841001590,-0.1271185428,9.7338829089
1520530733313581010,-0.0406992317,-0.0415202103,-0.0522142989,0.1937207007,-0.1702883473,9.7071020537
1520530733318598010,-0.0331672138,-0.0450065867,-0.0549604366,0.1492256953,-0.1822762861,9.7087089782
1520530733323614010,-0.0243832298,-0.0505263350,-0.0598888366,0.1696693465,-0.2470314612,9.6562766586
1520530733328629010,-0.0148451259,-0.0545830378,-0.0669718886,0.1780873205,-0.3117856997,9.6655550192
1520530733333646010,-0.0063098846,-0.0565989860,-0.0745786039,0.1468205599,-0.3045884220,9.6670144785
1520530733338661010,0.0027289227,-0.0577398552,-0.0824501292,0.0770716326,-0.3429554832,9.6410014797
1520530733343677010,0.0117692275,-0.0571295035,-0.0913904997,0.0446023043,-0.3477495161,9.6169171706
1520530733348692010,0.0220681318,-0.0574037396,-0.0962816845,0.0806793357,-0.3213712366,9.5444873682
1520530733353709010,0.0308690441,-0.0541987060,-0.0949208364,0.1191615025,-0.3249716550,9.5220355793
1520530733358724010,0.0401766862,-0.0492509958,-0.0913832161,0.2009361070,-0.4029221514,9.5689635447
1520530733363740010,0.0492459942,-0.0399559259,-0.0791543141,0.2899261178,-0.5060551586,9.5798193732
1520530733368756010,0.0630938455,-0.0300864144,-0.0631421911,0.2273925967,-0.4736734969,9.6268822222
1520530733373772010,0.0734180560,-0.0248833474,-0.0460769198,0.2478362478,-0.4688785274,9.6371378544
1520530733378788010,0.0860002197,-0.0211304894,-0.0311913316,0.2634696281,-0.4964599747,9.5707703781
1520530733383804010,0.0975711625,-0.0211631105,-0.0174149601,0.2947363886,-0.4868692865,9.5448895249
1520530733388819010,0.1114004977,-0.0226473974,-0.0052771800,0.2045438101,-0.5168407726,9.4830408641
1520530733393835010,0.1267291421,-0.0276153247,0.0022318425,0.1756821850,-0.5048471205,9.4914450998
1520530733398851010,0.1400442281,-0.0349151158,0.0097268141,0.3368262586,-0.4808768625,9.5886354715
1520530733403867010,0.1553893226,-0.0294004844,0.0200213266,0.2634696281,-0.4281089706,9.6415945070
1520530733408883010,0.1652051450,-0.0221295138,0.0265518031,0.2562542218,-0.3573591236,9.6938922242
1520530733413898010,0.1757817206,-0.0122467135,0.0371590755,0.2009361070,-0.2985969345,9.7443455492
1520530733418915010,0.1883664484,-0.0020629999,0.0445182865,0.1576436693,-0.2602210692,9.7633238157
1520530733423930010,0.1984436059,0.0145411152,0.0478728842,0.1335923151,-0.2434312301,9.8088651603
1520530733428946010,0.2057584521,0.0311375914,0.0536675289,0.1372000182,-0.2566220557,9.7902486046
1520530733433962010,0.2120627792,0.0436535620,0.0597034632,0.1660616433,-0.2410354781,9.7678717467
1520530733438978010,0.2236510659,0.0599545000,0.0676523177,0.2033412424,-0.2062633093,9.7453942440
1520530733443994010,0.2312099033,0.0695505617,0.0760986006,0.2225823258,-0.1966716844,9.7056847139
1520530733449010010,0.2392669397,0.0762344319,0.0839806274,0.1937207007,-0.1978685770,9.6966696530
1520530733454025010,0.2513350347,0.0759273771,0.0915312867,0.1889104299,-0.2002664832,9.6211794548
1520530733459041010,0.2646491995,0.0689233411,0.0974052060,0.1937207007,-0.2350419301,9.5607350598
1520530733464056010,0.2804687861,0.0566768251,0.1026933508,0.1612513725,-0.2590222098,9.5180751568
1520530733469073010,0.2975402526,0.0429826198,0.1047214958,0.1816950236,-0.2338418531,9.5085544631
1520530733474088010,0.3118502037,0.0313270232,0.1067703363,0.1251743411,-0.2518245575,9.5079599969
1520530733479104010,0.3274231647,0.0260896629,0.1061602921,0.0999204191,-0.2314372034,9.5384016671
1520530733484120010,0.3455185740,0.0281393571,0.1050600661,0.1011229868,-0.2446278417,9.5616457039
1520530733489135010,0.3593426559,0.0325264665,0.1010095541,0.0626408200,-0.2746033552,9.6596695913
1520530733494151010,0.3693978238,0.0360321181,0.0991237409,0.0301714918,-0.2302326307,9.7703460380
1520530733499169010,0.3771913062,0.0410003620,0.0948183306,0.0373868980,-0.1930598395,9.8434546272
1520530733504184010,0.3827256866,0.0447883416,0.0956486005,0.0698562263,-0.1343044876,9.8837563315
1520530733509198010,0.3837382248,0.0485694500,0.0983810927,0.1432128568,-0.0899420052,9.9201876640
1520530733514214010,0.3840010026,0.0555562212,0.1008688931,0.1359974505,-0.0755517582,9.9760267721
1520530733519231010,0.3840156493,0.0648739702,0.1033749449,0.1624539402,-0.1103288909,10.0455318089
1520530733524247010,0.3785021216,0.0759444162,0.1034696900,0.1756821850,-0.1103299212,10.0698080763
1520530733529262010,0.3722350894,0.0858424729,0.1059918561,0.1949232684,-0.1391107899,10.1312424892
1520530733534279010,0.3632037702,0.0957394465,0.1085191561,0.2442285447,-0.1571017363,10.2156166306
1520530733539295010,0.3514016559,0.1021445503,0.1088605458,0.2189746227,-0.1642946120,10.2728145066
1520530733544310010,0.3355757260,0.1068019569,0.1083844270,0.2081515133,-0.1211247138,10.3042556426
1520530733549326010,0.3152325722,0.1143641523,0.1106443989,0.1877078622,-0.1223222620,10.3590765638
1520530733554341010,0.2943831316,0.1216456927,0.1088448928,0.1672642110,-0.0767533337,10.3406368116
1520530733559358010,0.2735368548,0.1297948307,0.1094869691,0.0866921743,0.0047944903,10.3483143990
1520530733564373010,0.2506807676,0.1414536357,0.1050190840,0.0181458146,0.0479688841,10.3036158768
1520530733569389010,0.2268139025,0.1507889834,0.0975592764,-0.0564133836,0.1079317122,10.2403652059
1520530733574406010,0.2036975505,0.1592577571,0.0873859404,-0.0997058212,0.0971428202,10.1861763461
1520530733579421010,0.1810764964,0.1636531719,0.0750161805,-0.1105289307,0.1331178758,10.1165179742
1520530733584437010,0.1617147136,0.1616357648,0.0639441749,-0.1021109567,0.1690914329,10.0908337916
1520530733589453010,0.1410837267,0.1520498804,0.0498406978,-0.1490110975,0.2470392132,10.0877278499
1520530733594468010,0.1196856001,0.1325558984,0.0359335819,-0.1995189414,0.3105975893,10.0265638577
1520530733599485010,0.0985213540,0.1017045741,0.0195043858,-0.1983163737,0.3573639722,10.0358037000
1520530733604500010,0.0763603963,0.0743370870,0.0077030139,-0.1790752903,0.4221160565,10.0297425551
1520530733609516010,0.0511804615,0.0431745921,-0.0019572902,-0.2283805665,0.4269164582,9.9721105873
1520530733614531010,0.0252479475,0.0120074312,-0.0099929188,-0.2019240768,0.3969358871,9.9881523249
1520530733619548010,-0.0019291819,-0.0104186861,-0.0179595213,-0.2608498948,0.4568974976,9.9886674057
1520530733624564010,-0.0306126105,-0.0325576517,-0.0245683708,-0.2740781396,0.5072624257,9.9713148898
1520530733629579010,-0.0585318947,-0.0482909614,-0.0292358914,-0.2560396239,0.4377108762,10.0560436442
1520530733634595010,-0.0871977324,-0.0602438520,-0.0311676527,-0.2500267854,0.4245198633,10.1106187475
1520530733639611010,-0.1166042274,-0.0637527140,-0.0308691772,-0.2764832750,0.3693614643,10.1853072615
1520530733644626010,-0.1495278946,-0.0666809138,-0.0302891755,-0.2428113791,0.2758258888,10.2664208051
1520530733649643010,-0.1824533181,-0.0696032862,-0.0318735410,-0.1442008266,0.2398439960,10.3119818289
1520530733654658010,-0.2136116011,-0.0675758030,-0.0318001057,-0.0407800033,0.1978660264,10.3110161209
1520530733659674010,-0.2457799173,-0.0684596452,-0.0328292179,0.0602356846,0.1247105931,10.2822127709
1520530733664689010,-0.2734117996,-0.0641164613,-0.0265219765,0.1083383931,0.1043214595,10.2422515530
1520530733669706010,-0.2975227187,-0.0548052503,-0.0250533029,0.0325766272,0.1486955558,10.1860006522
1520530733674722010,-0.3324581721,-0.0542172273,-0.0320181754,-0.0287543262,0.0875441708,10.2366294365
1520530733679738010,-0.3424982307,-0.0396257157,-0.0416280045,-0.0732493316,0.1762840276,10.0614922554
1520530733684754010,-0.3616028223,-0.0384428935,-0.0507822016,-0.0888827118,0.2698181982,9.9523116809
1520530733689770010,-0.3774426853,-0.0390078271,-0.0596852588,-0.0455902742,0.3549537965,9.9738880109
1520530733694784010,-0.3864932538,-0.0354863483,-0.0701930697,0.0181458146,0.3489531304,9.9511927545
1520530733699801010,-0.3897550263,-0.0284798310,-0.0755445662,0.0085252729,0.3393607563,9.9094585673
1520530733704817010,-0.3970459776,-0.0255448027,-0.0844368149,-0.1201494724,0.3261802333,9.9641824930
1520530733709833010,-0.3912557467,-0.0109419893,-0.0959698688,-0.2584447593,0.2794245276,9.9388448678
1520530733714848010,-0.3889902544,-0.0010019783,-0.1078025038,-0.2752807073,0.2638370134,9.8704574467
1520530733719864010,-0.3839608749,0.0071842527,-0.1172186983,-0.2079369154,0.2338532578,9.8640204772
1520530733724880010,-0.3749076444,0.0138983824,-0.1204309201,-0.0624262221,0.1451055337,9.8057456427
1520530733729896010,-0.3663653778,0.0118591244,-0.1193801667,0.0025124344,0.0287838549,9.7250390628
1520530733734913010,-0.3580813217,0.0031106396,-0.1156746186,0.0518177106,-0.0479649722,9.6572296438
1520530733739927010,-0.3462791840,-0.0109046981,-0.1033581515,0.1828975913,-0.1451055554,9.6304813421
1520530733744943010,-0.3324673692,-0.0290146571,-0.0851245316,0.2273925967,-0.1822823740,9.5661665871
1520530733749960010,-0.3226846038,-0.0520746293,-0.0688150579,0.3103697689,-0.2398475769,9.5491450511
1520530733754975010,-0.3073538267,-0.0640743920,-0.0470204569,0.2574567895,-0.2722202472,9.5032058876
1520530733759991010,-0.2910131499,-0.0737477837,-0.0233161169,0.2153669196,-0.3225808669,9.4815839417
1520530733765006010,-0.2716549935,-0.0813773886,-0.0006839996,0.1528333985,-0.3561519285,9.4380638759
1520530733770024010,-0.2492789617,-0.0866718220,0.0208781182,0.1588462370,-0.3489575542,9.4321876148
1520530733775038010,-0.2263948279,-0.0861303552,0.0395077593,0.2045438101,-0.3273765857,9.4723968129
1520530733780055010,-0.2030127148,-0.0885003515,0.0573025985,0.1877078622,-0.2949984830,9.4272054973
1520530733785070010,-0.1773720288,-0.0905664223,0.0707667260,0.1720744819,-0.2854041420,9.4122404370
1520530733790086010,-0.1457022292,-0.0905744130,0.0782832039,0.1636565079,-0.2890009077,9.3728129859
1520530733795101010,-0.1160421106,-0.0879512610,0.0823063268,0.1444154245,-0.2254449667,9.4054783226
1520530733800118010,-0.0861238245,-0.0783260406,0.0831357862,0.0770716326,-0.1750758240,9.4490840198
1520530733805134010,-0.0544427889,-0.0637363961,0.0802121285,0.0602356846,-0.1702779510,9.4910803956
1520530733810150010,-0.0242731413,-0.0470865262,0.0694610017,0.0470074397,-0.1019259166,9.4586024681
1520530733815164010,0.0056456035,-0.0301453701,0.0587125648,0.0542228460,-0.0755453893,9.4410743530
1520530733820181010,0.0353189497,-0.0070772247,0.0450352745,0.0385894657,-0.0215828526,9.5050918160
1520530733825197010,0.0637326771,0.0133665108,0.0318814018,0.0710587940,-0.0359750665,9.5245462587
1520530733830212010,0.0903864346,0.0338124708,0.0176486126,0.0433997366,-0.0887350910,9.4923268952
1520530733835229010,0.1170366716,0.0513431287,0.0039346844,0.0770716326,-0.1163179432,9.5245660792
1520530733840244010,0.1394079559,0.0604066645,-0.0041543152,0.1468205599,-0.1558950095,9.5890058355
1520530733845260010,0.1610218625,0.0647982830,-0.0087603874,0.2069489456,-0.1642936754,9.6279416625
1520530733850277010,0.1768529477,0.0668558322,-0.0131029637,0.2081515133,-0.2014671222,9.6221554872
1520530733855292010,0.1899200047,0.0671552502,-0.0142071938,0.1720744819,-0.2638196144,9.6516210434
1520530733860307010,0.1979537421,0.0636719845,-0.0180364485,0.2310002998,-0.2938027143,9.7301025180
1520530733865322010,0.2017277565,0.0671708041,-0.0182873182,0.2923312532,-0.3921370057,9.7900329316
1520530733870340010,0.2040021951,0.0729833552,-0.0122950473,0.3079646335,-0.4161210318,9.8340656229
1520530733875356010,0.2037564750,0.0738428417,-0.0068769934,0.2478362478,-0.3657524510,9.8450610591
1520530733880371010,0.2007508312,0.0808334321,-0.0062769469,0.1937207007,-0.2866049683,9.9152392475
1520530733885388010,0.1937224342,0.0892924815,-0.0105281435,0.1780873205,-0.1451051808,9.9791713486
1520530733890403010,0.1904741597,0.1029862743,-0.0104175911,0.1035281222,-0.0491681400,10.0228028413
1520530733895418010,0.1839486309,0.1140789079,-0.0187079018,-0.0383748679,0.0707569542,9.9996620810
1520530733900434010,0.1776602835,0.1167302298,-0.0303096995,-0.0407800033,0.1331124435,9.9624360789
1520530733905450010,0.1693596519,0.1173381586,-0.0408411414,0.0758690649,0.1762724138,9.9287185615
1520530733910466010,0.1623050352,0.1071515120,-0.0463167990,0.1299846119,0.1870604629,9.8840198397
1520530733915481010,0.1529888113,0.0949148181,-0.0482867211,0.1263769088,0.1462899695,9.8585275454
1520530733920497010,0.1424050966,0.0753966608,-0.0516626162,0.1468205599,0.0923270582,9.8607054676
1520530733925513010,0.1338272404,0.0523819484,-0.0547983762,0.1059332577,0.0839362597,9.8041665711
1520530733930529010,0.1257566825,0.0302299316,-0.0535996661,0.0674510909,0.0755452738,9.7278478173
1520530733935545010,0.1134110140,0.0077935977,-0.0556417955,0.0337791949,0.0779461771,9.6991196214
1520530733940561010,0.1040832171,-0.0137710434,-0.0563301268,-0.0167286490,0.0539673024,9.6647703019
1520530733945576010,0.0922410715,-0.0350394570,-0.0591759350,-0.0275517585,0.0335827581,9.6311933515
1520530733950594010,0.0821739776,-0.0484572815,-0.0554718855,-0.0311594616,0.0395787412,9.6579519309
1520530733955609010,0.0718597249,-0.0572057677,-0.0544372588,-0.0010952688,0.0071996083,9.6727987481
1520530733960625010,0.0592846139,-0.0671286909,-0.0504313191,0.0433997366,-0.0503625974,9.7282046991
1520530733965639010,0.0457132775,-0.0723985966,-0.0431413924,0.0806793357,-0.1271104880,9.7499974152
1520530733970656010,0.0331477910,-0.0791337723,-0.0326178972,0.1492256953,-0.1558951968,9.8167626405
1520530733975673010,0.0228512076,-0.0812088232,-0.0209808497,0.1913155653,-0.1690890195,9.8372844174
1520530733980688010,0.0120554059,-0.0838806803,-0.0042069428,0.1865052944,-0.2086602789,9.8757205763
1520530733985703010,-0.0002433549,-0.0851056750,0.0160979765,0.2117592164,-0.2062639649,9.9184717577
1520530733990720010,-0.0112882130,-0.0866142777,0.0336928801,0.1756821850,-0.2362396657,9.8444749298
1520530733995734010,-0.0170472648,-0.0834659447,0.0540190109,0.1203640702,-0.2830018338,9.8113567920
1520530734000751010,-0.0208009363,-0.0820563901,0.0710815186,0.1504282631,-0.2590213669,9.7819871799
1520530734005767010,-0.0230470775,-0.0803526749,0.0873318114,0.1179589348,-0.2290403274,9.7613553918
1520530734010783010,-0.0222791303,-0.0803989991,0.1046453486,0.1287820442,-0.1906686768,9.7263483088
1520530734015798010,-0.0215145273,-0.0830685125,0.1222094239,0.1444154245,-0.1870724731,9.7099226197
1520530734020815010,-0.0187500403,-0.0903855505,0.1345938240,0.1853027267,-0.1499023045,9.6932183829
1520530734025831010,-0.0142248815,-0.0979998397,0.1494076470,0.2165694873,-0.1391124758,9.6580392088
1520530734030847010,-0.0084384340,-0.1024098637,0.1647846822,0.1865052944,-0.1451058364,9.6885534247
1520530734035862010,-0.0029014309,-0.1030210609,0.1761328957,0.1756821850,-0.1139273425,9.7095469586
1520530734040877010,0.0048994688,-0.0992482207,0.1829109748,0.1023255545,-0.0683542931,9.7381079870
1520530734045893010,0.0109397478,-0.0925440136,0.1829509044,0.0518177106,-0.0395709893,9.7525172627
1520530734050910010,0.0154795024,-0.0770835644,0.1773788631,0.0373868980,0.0299802792,9.7653734852
1520530734055926010,0.0225292578,-0.0621976154,0.1690922494,0.0482100075,0.0947330192,9.7896100184
1520530734060942010,0.0260576189,-0.0493512796,0.1602555165,0.0770716326,0.1283067032,9.7660534765
1520530734065956010,0.0290811869,-0.0364978564,0.1487142580,0.1143512317,0.1450917656,9.8272678785
1520530734070973010,0.0326087560,-0.0242342896,0.1398730789,0.1239717734,0.1918574929,9.8422365053
1520530734075988010,0.0393985015,-0.0157588987,0.1315380241,0.1768847527,0.1834593889,9.8370810923
1520530734081005010,0.0406560620,-0.0110787716,0.1250781583,0.2021386747,0.1930505454,9.8356637875
1520530734086020010,0.0439201398,-0.0098973850,0.1196700654,0.2033412424,0.2074401368,9.9053666876
1520530734091038010,0.0406420936,-0.0130813133,0.1112647561,0.1287820442,0.2002511012,9.8851808260
1520530734096052010,0.0403831971,-0.0136415995,0.1028738538,0.1684667787,0.1750660615,9.8917919789
1520530734101068010,0.0388719816,-0.0127527396,0.0972018596,0.2021386747,0.1546780518,9.8728898129
1520530734106085010,0.0361015002,-0.0139040636,0.0915166374,0.2141643518,0.1234994642,9.8495602860
1520530734111100010,0.0310688864,-0.0165182955,0.0877183216,0.1877078622,0.0755359078,9.8103516764
1520530734116115010,0.0245199096,-0.0220316662,0.0782191114,0.2706850343,0.0683346027,9.8200103391
1520530734121132010,0.0169698186,-0.0284370668,0.0752082004,0.2875209823,0.0311599384,9.8361527332
1520530734126147010,0.0086680305,-0.0333865685,0.0724803508,0.2129617841,0.0083820773,9.8090092093
1520530734131162010,0.0006201404,-0.0351249144,0.0676121213,0.1937207007,-0.0155992327,9.8045713011
1520530734136178010,-0.0096838917,-0.0313212846,0.0603554179,0.1865052944,-0.0227935132,9.8151078431
1520530734141195010,-0.0194856751,-0.0266382053,0.0512106290,0.1816950236,-0.0371828237,9.7826286647
1520530734146210010,-0.0277765879,-0.0205012548,0.0434268847,0.1865052944,-0.0587677259,9.7767921728
1520530734151227010,-0.0338069953,-0.0137740932,0.0332084730,0.1408077214,-0.1043315030,9.7040663307
1520530734156242010,-0.0413444037,-0.0064647533,0.0229973078,0.0782742003,-0.1187163177,9.6465818280
1520530734161258010,-0.0456159388,0.0002638259,0.0125050831,0.1107435285,-0.1462990763,9.6846434368
1520530734166273010,-0.0521392212,0.0139832908,0.0026115047,0.2622670604,-0.1834842306,9.7320148952
1520530734171289010,-0.0536293684,0.0282663694,0.0005588691,0.2899261178,-0.1702958401,9.7747321425
1520530734176306010,-0.0541180603,0.0396352680,-0.0012473184,0.1372000182,-0.1714830857,9.7553012629
1520530734181321010,-0.0526081503,0.0431412143,-0.0044699925,0.1083383931,-0.2038576293,9.7358573091
1520530734186337010,-0.0478306969,0.0466462551,-0.0068870962,0.1877078622,-0.1726861598,9.6943793342
1520530734191353010,-0.0435476671,0.0527582628,-0.0036017950,0.1997335393,-0.1678905347,9.6559068558
1520530734196368010,-0.0387593189,0.0582760434,0.0040068610,0.1985309716,-0.1702887219,9.6814880665
1520530734201385010,-0.0284375587,0.0667069215,0.0127096635,0.2550516541,-0.1391154729,9.6158274646
1520530734206401010,-0.0218979987,0.0646413809,0.0232332570,0.3248005814,-0.1619045733,9.6384136679
1520530734211416010,-0.0115947233,0.0570351836,0.0358719782,0.2935338209,-0.1163348020,9.5898635184
1520530734216432010,-0.0028010363,0.0511905429,0.0433864663,0.2466336801,-0.0947466216,9.5693803763
1520530734221448010,0.0095104422,0.0465193746,0.0484683995,0.1889104299,-0.0455773686,9.5547864047
1520530734226464010,0.0165438103,0.0415562111,0.0530168190,0.1901129976,-0.0179972325,9.6233142981
1520530734231480010,0.0255866085,0.0386459102,0.0529777861,0.1841001590,0.0035877634,9.5791903050
1520530734236496010,0.0331227115,0.0357313764,0.0542942831,0.1925181330,-0.0179974198,9.5744808419
1520530734241512010,0.0386519875,0.0354385158,0.0556345216,0.1985309716,-0.0515738200,9.6697508624
1520530734246526010,0.0494579665,0.0345642252,0.0572310586,0.2165694873,-0.1067356844,9.6417376213
1520530734251543010,0.0552356873,0.0342809326,0.0550537337,0.1841001590,-0.0899451896,9.6304158475
1520530734256558010,0.0642809123,0.0357530545,0.0507193127,0.1492256953,-0.0731545076,9.6841975453
1520530734261576010,0.0698111684,0.0407255114,0.0445242817,0.1564411016,-0.0851464738,9.6945983039
1520530734266591010,0.0773621925,0.0512255924,0.0418848521,0.1624539402,-0.1175237335,9.6783013354
1520530734271606010,0.0826455524,0.0605738178,0.0338298128,0.1456179922,-0.1031327372,9.7086669170
1520530734276622010,0.0949636055,0.0678814660,0.0270988730,0.1023255545,-0.0623585910,9.7357778524
1520530734281638010,0.0997376364,0.0722759575,0.0190069747,0.0915024451,-0.0455697821,9.7486504107
1520530734286654010,0.1042586945,0.0746270167,0.0122527110,0.1155537994,0.0107879446,9.7623070780
1520530734291669010,0.1107872774,0.0725978976,0.0092490097,0.1925181330,0.0563492864,9.7928914063
1520530734296685010,0.1130403459,0.0670661199,0.0078498411,0.2009361070,0.0407598053,9.7905003844
1520530734301702010,0.1137791487,0.0548231661,0.0096488926,0.2057463779,0.0995173114,9.8148012896
1520530734306717010,0.1165287774,0.0411160645,0.0144090998,0.2237848935,0.1258969958,9.8529507388
1520530734311733010,0.1145007331,0.0239046506,0.0213158648,0.2514439509,0.0923189098,9.8317956728
1520530734316748010,0.1127228821,0.0037700202,0.0317170289,0.2213797581,0.1139057789,9.8634451379
1520530734321765010,0.1071798219,-0.0111116959,0.0386481128,0.1456179922,0.0935262923,9.9153367692
1520530734326781010,0.0988773162,-0.0216200850,0.0442649474,0.1227692057,0.0971254931,9.9202042330
1520530734331796010,0.0885684698,-0.0283376207,0.0485616864,0.1083383931,0.0767412298,9.9354724439
1520530734336812010,0.0790083331,-0.0370865400,0.0498654588,0.1203640702,0.1235067697,9.9353097891
1520530734341828010,0.0669390816,-0.0423369158,0.0501183919,0.0818819034,0.1355011711,9.9286997938
1520530734346843010,0.0538650777,-0.0461256637,0.0484904860,0.0734639294,0.1307052650,9.9438942779
1520530734351861010,0.0390324211,-0.0499165577,0.0474069390,0.1299846119,0.1702724969,9.9293598246
1520530734356876010,0.0267175004,-0.0516733314,0.0487691994,0.1660616433,0.1750662488,9.9975704889
1520530734361892010,0.0093817467,-0.0511075538,0.0525934921,0.1540359662,0.1414912536,10.0523410468
1520530734366907010,-0.0074543966,-0.0511170640,0.0537069461,0.1143512317,0.0935287274,10.0120990488
1520530734371923010,-0.0205198227,-0.0490803067,0.0529351396,0.0349817626,0.0971323303,10.0024087790
1520530734376939010,-0.0335847194,-0.0461672106,0.0513583647,0.0638433877,0.0983292228,10.0265317113
1520530734381955010,-0.0466456134,-0.0406331105,0.0503426894,0.1107435285,0.0731436212,9.9912354516
1520530734386971010,-0.0617129855,-0.0333565900,0.0512379076,0.1997335393,0.0251710734,9.9892539070
1520530734391986010,-0.0732590102,-0.0252110933,0.0545681740,0.1420102891,-0.0623616818,9.9689825203
1520530734397001010,-0.0868202633,-0.0199773159,0.0567977597,0.1059332577,-0.0659562933,9.9112299823
1520530734402018010,-0.0956110570,-0.0158984647,0.0557630347,0.1468205599,-0.0827474436,9.9131726691
1520530734407034010,-0.1064095167,-0.0109513466,0.0566325339,0.1347948828,-0.0407765922,9.9190595125
1520530734412050010,-0.1139457961,-0.0083289258,0.0555843598,0.1131486640,-0.0527663106,9.9018497376
1520530734417065010,-0.1204745945,-0.0048355998,0.0558937175,0.1576436693,-0.0491723547,9.8340087932
1520530734422082010,-0.1229778210,0.0003995960,0.0591849510,0.1408077214,-0.0455736222,9.7702512385
1520530734427098010,-0.1219606214,0.0067995229,0.0632901805,0.1179589348,-0.0119959108,9.7344144305
1520530734432113010,-0.1196926828,0.0120482443,0.0622438119,0.1540359662,0.0059883857,9.7805314968
1520530734437129010,-0.1181845370,0.0126330609,0.0617043659,0.1347948828,0.0047907439,9.7400449087
1520530734442145010,-0.1104033373,0.0056414275,0.0621776353,0.1516308308,0.0335688028,9.6933672156
1520530734447159010,-0.1016110460,0.0033137972,0.0621435153,0.1347948828,0.0815357310,9.6516471305
1520530734452176010,-0.0940740178,0.0015669869,0.0626572668,0.0590331169,0.0803424911,9.6384399909
1520530734457193010,-0.0797587701,0.0001382576,0.0542326254,0.0409946012,0.0911361598,9.5467956703
1520530734462207010,-0.0672003287,-0.0004206495,0.0471706498,0.0169432469,0.0995320160,9.5354001465
1520530734467223010,-0.0523830989,-0.0021398380,0.0384723059,0.0806793357,0.0779425244,9.4952879322
1520530734472240010,-0.0380686432,-0.0041513364,0.0300432183,0.0963127160,0.0503610771,9.4788926459
1520530734477256010,-0.0245062884,-0.0079252774,0.0267425644,0.2177720550,-0.0263933697,9.4905688564
1520530734482272010,-0.0074137418,-0.0038348285,0.0251186751,0.2310002998,-0.1582998465,9.5800538126
1520530734487287010,0.0081787938,0.0040342874,0.0267730369,0.1672642110,-0.1798794101,9.5841816605
1520530734492302010,0.0212559693,0.0116175901,0.0259949298,0.1768847527,-0.1738844573,9.5968657569
1520530734497318010,0.0340771886,0.0180454543,0.0214207546,0.2033412424,-0.1594968327,9.6093777971
1520530734502336010,0.0433900644,0.0261954805,0.0260650124,0.2574567895,-0.2122632261,9.6356318314
1520530734507351010,0.0539597833,0.0334667465,0.0325940887,0.2550516541,-0.2338475664,9.6926213434
1520530734512366010,0.0602547836,0.0392816014,0.0383083461,0.1732770496,-0.2266463550,9.6771402558
1520530734517382010,0.0695700744,0.0474236150,0.0459286088,0.1780873205,-0.2014647807,9.6654474399
1520530734522399010,0.0748599147,0.0500182776,0.0570311972,0.2261900290,-0.1810831399,9.6928508138
1520530734527414010,0.0796396771,0.0467835959,0.0686313490,0.1853027267,-0.1223220747,9.7431636781
1520530734532429010,0.0821573111,0.0435494850,0.0796946096,0.1516308308,-0.0443753247,9.7434154127
1520530734537444010,0.0849153804,0.0336194558,0.0885419053,0.1444154245,-0.0251885160,9.7271969182
1520530734542461010,0.0854067029,0.0207783375,0.0960184411,0.1456179922,-0.0263877501,9.7027813595
1520530734547477010,0.0884147146,0.0126090973,0.1002793284,0.1660616433,-0.0311859040,9.7502349530
1520530734552494010,0.0886611207,0.0056006700,0.1059069715,0.1095409608,-0.0311815020,9.7658929620
1520530734557509010,0.0833786507,0.0006399665,0.1077728015,0.0349817626,-0.0191842908,9.7805527096
1520530734562524010,0.0803630608,-0.0008246935,0.1102021998,-0.0263491907,0.0179938390,9.8148155926
1520530734567540010,0.0765860159,-0.0046061564,0.1072042957,-0.0287543262,-0.0035905013,9.8195086267
1520530734572557010,0.0720641777,-0.0031495491,0.1066827203,-0.0010952688,-0.0083892172,9.8064605042
1520530734577573010,0.0647788835,-0.0028675757,0.1091333914,0.0433997366,0.0059970025,9.8397155598
1520530734582588010,0.0572315133,-0.0098674002,0.1104467686,0.0446023043,0.0107934705,9.8803742157
1520530734587604010,0.0481844418,-0.0122114904,0.1139628826,0.0157406792,0.0227871226,9.8399684053
1520530734592620010,0.0403928961,-0.0154299704,0.1177405396,0.0229560855,0.0731504584,9.8200926155
1520530734597635010,0.0313418650,-0.0206879059,0.1212344228,0.1119460962,0.1199100041,9.8854230425
1520530734602652010,0.0215349105,-0.0285736965,0.1266035196,0.1131486640,0.1187107700,9.9040068100
1520530734607668010,0.0144867899,-0.0396599917,0.1305902990,0.0830844711,0.1522890433,9.8426730654
1520530734612682010,0.0061753144,-0.0548217921,0.1329250135,0.0494125752,0.1738761934,9.8255475995
1520530734617700010,-0.0008793965,-0.0673497129,0.1312192137,0.0722613617,0.2086494862,9.7846162542
1520530734622715010,-0.0054184374,-0.0787147532,0.1308703685,-0.0059055396,0.1822744848,9.7133498832
1520530734627730010,-0.0084513006,-0.0865614640,0.1226995690,-0.0323620293,0.1618911581,9.7345458644
1520530734632747010,-0.0124822318,-0.0891636471,0.1145706519,-0.1129340661,0.1523043099,9.6842051239
1520530734637763010,-0.0157527547,-0.0868112695,0.1062075813,-0.1309725818,0.1391151702,9.6785828427
1520530734642778010,-0.0160034615,-0.0789104778,0.0938229601,-0.0624262221,0.0659622657,9.7221484544
1520530734647793010,-0.0170013804,-0.0672270818,0.0833624604,-0.0022978365,-0.0179822469,9.7611579498
1520530734652809010,-0.0174898881,-0.0526391131,0.0764403549,0.0554254137,-0.0695497808,9.7943485633
1520530734657825010,-0.0209904180,-0.0354298652,0.0695438577,0.0686536586,-0.1391009556,9.8117197887
1520530734662841010,-0.0222283412,-0.0199789648,0.0666880100,0.0385894657,-0.1367003333,9.8131722204
1520530734667857010,-0.0229691591,-0.0059731352,0.0594913791,-0.0311594616,-0.0971232670,9.8568118518
1520530734672874010,-0.0242178516,0.0051230228,0.0506501754,-0.0528056804,-0.0515542451,9.8035194860
1520530734677889010,-0.0257230375,0.0112604464,0.0436654672,-0.0167286490,0.0131965280,9.7577815758
1520530734682906010,-0.0284835727,0.0185643726,0.0361508932,0.0590331169,0.0371734359,9.7024000046
1520530734687920010,-0.0287315117,0.0270413774,0.0262056313,0.1155537994,0.0431647360,9.6878982928
1520530734692936010,-0.0267240535,0.0305642745,0.0167594681,0.0698562263,0.0611554014,9.6441640746
1520530734697952010,-0.0289988841,0.0259238173,0.0083411765,0.0614382523,0.0875371464,9.6360852768
1520530734702968010,-0.0270077035,0.0177927901,-0.0017350018,0.1059332577,0.1163130511,9.6379484135
1520530734707984010,-0.0212358712,0.0157728452,-0.0082543995,0.1708719142,0.0851303424,9.6489681828
1520530734712999010,-0.0199771267,0.0198636474,-0.0122837984,0.1865052944,0.0647437377,9.6895109343
1520530734718016010,-0.0184667305,0.0245387739,-0.0168503096,0.1732770496,0.0323679765,9.7477784598
1520530734723032010,-0.0174497387,0.0353298648,-0.0202870190,0.1937207007,0.0431586481,9.7870818442
1520530734728048010,-0.0124153488,0.0452556618,-0.0264433242,0.2057463779,0.0611448178,9.8799187699
1520530734733063010,-0.0098891095,0.0580914057,-0.0314905477,0.2658747635,0.0659366965,9.9455710451
1520530734738080010,-0.0068674038,0.0642189465,-0.0341549225,0.2201771904,0.0803299407,9.8890567514
1520530734743095010,-0.0035911374,0.0750189363,-0.0405718373,0.1528333985,0.0851317473,9.9013289968
1520530734748109010,0.0021964903,0.0849472139,-0.0475411803,0.1612513725,0.0899276534,9.8733509291
1520530734753127010,0.0092408708,0.0931189355,-0.0512796447,0.2105566487,0.0743349879,9.8449947683
1520530734758143010,0.0150356611,0.1050723362,-0.0528225082,0.2141643518,0.0431570559,9.8066393055
1520530734763158010,0.0195721499,0.1143969564,-0.0522186787,0.1648590756,0.0635462831,9.8152343417
1520530734768175010,0.0268629366,0.1155602507,-0.0503295001,0.1468205599,0.0395648796,9.7747582659
1520530734773191010,0.0376712051,0.1170199501,-0.0497973619,0.1372000182,-0.0215905328,9.7807222624
1520530734778206010,0.0457181307,0.1193468925,-0.0470890534,0.0951101483,-0.0275829568,9.7451113235
1520530734783222010,0.0527587594,0.1202136048,-0.0433078099,0.0626408200,-0.0491649556,9.7117462335
1520530734788237010,0.0613066087,0.1204974104,-0.0392632670,0.0890973097,-0.0647558416,9.7196389313
1520530734793254010,0.0693421808,0.1134956774,-0.0350028218,0.1347948828,-0.0563654177,9.7377802571
1520530734798270010,0.0791360528,0.1059118646,-0.0307500899,0.1576436693,-0.0503714951,9.7259305748
1520530734803285010,0.0871738635,0.0986100059,-0.0232453171,0.1552385339,-0.0479730270,9.7550052451
1520530734808300010,0.0969730123,0.0939356677,-0.0173470790,0.1636565079,-0.0539693847,9.8223335057
1520530734813316010,0.1040071723,0.0895552733,-0.0127942133,0.1708719142,-0.0239914361,9.7920182991
1520530734818332010,0.1102871261,0.0842975161,-0.0071644331,0.1323897474,0.0155831950,9.7691113936
1520530734823348010,0.1142966401,0.0743847332,-0.0045420266,0.1191615025,0.0227790678,9.7634224134
1520530734828364010,0.1250986634,0.0720600758,-0.0053915181,0.1167563671,0.0371689402,9.7320539047
1520530734833381010,0.1359031017,0.0697274057,-0.0032650047,0.1143512317,0.0479613913,9.7018510480
1520530734838396010,0.1386629392,0.0641819847,0.0004752653,0.0722613617,0.0239818610,9.6964733919
1520530734843412010,0.1449325588,0.0531045497,0.0030845789,0.0433997366,0.0107935642,9.7397665023
1520530734848427010,0.1534646637,0.0440742485,0.0032703406,0.1107435285,0.0359702681,9.7263028796
1520530734853443010,0.1582252201,0.0341712305,0.0023742503,0.1420102891,0.0263747095,9.7016028798
1520530734858458010,0.1602256686,0.0271802463,0.0017760706,0.1059332577,0.0515594682,9.7019294753
1520530734863474010,0.1660008803,0.0245636922,0.0003925987,0.0626408200,0.0443679974,9.7465193437
1520530734868490010,0.1720201380,0.0190443177,-0.0050717591,0.0830844711,0.0635526520,9.7590852318
1520530734873507010,0.1689871808,0.0088563327,-0.0094727008,0.1011229868,0.0899323364,9.8216397040
1520530734878522010,0.1707409094,0.0065332300,-0.0121992115,0.0482100075,0.1103218447,9.8081891202
1520530734883538010,0.1722432531,0.0047957116,-0.0160029929,0.0638433877,0.1067232058,9.8254726218
1520530734888554010,0.1692220845,0.0024714667,-0.0189911817,0.0253612209,0.1546918199,9.8560161529
1520530734893571010,0.1651852099,-0.0059649629,-0.0247296475,0.0217535178,0.1558912413,9.8397800834
1520530734898585010,0.1641698568,-0.0114929215,-0.0280165699,0.0421971689,0.1438982448,9.8512142303
1520530734903601010,0.1619074186,-0.0123694181,-0.0274779469,0.0470074397,0.1498935723,9.8720801546
1520530734908618010,0.1551189629,-0.0147024242,-0.0277536759,0.0361843303,0.0875391132,9.9105970562
1520530734913632010,0.1493361417,-0.0170364933,-0.0274901801,0.0157406792,0.0755493012,9.8852405686
1520530734918650010,0.1445610719,-0.0158662700,-0.0299073331,0.0193483823,0.0407739479,9.8573479094
1520530734923665010,0.1367628027,-0.0211113298,-0.0310150638,0.0349817626,0.0491667133,9.8990247406
1520530734928681010,0.1282157415,-0.0222758449,-0.0326313629,0.0397920335,0.0719500067,9.8757128238
1520530734933697010,0.1211746697,-0.0246045788,-0.0345299006,0.0554254137,0.0875376147,9.8615997292
1520530734938714010,0.1133846256,-0.0246083594,-0.0342448863,0.0446023043,0.0803436151,9.8977385534
1520530734943729010,0.1045890764,-0.0254896010,-0.0328824907,0.0710587940,0.0695492907,9.8626272476
1520530734948745010,0.0945305683,-0.0301549633,-0.0331699371,0.0698562263,0.0575579801,9.8917042449
1520530734953761010,0.0847233982,-0.0365765470,-0.0304951838,0.1143512317,0.0611519360,9.8610519069
1520530734958776010,0.0751684914,-0.0435866287,-0.0256609762,0.0698562263,0.0911339120,9.8509964650
1520530734963791010,0.0683794085,-0.0506007264,-0.0189380813,0.0518177106,0.0959318786,9.8290866283
1520530734968808010,0.0620915158,-0.0584880524,-0.0124933351,0.0662485231,0.1199135631,9.7847613106
1520530734973823010,0.0522845182,-0.0660810016,-0.0076631069,0.0890973097,0.1942584899,9.8356007495
1520530734978839010,0.0454949139,-0.0710444812,-0.0049828389,0.1420102891,0.2074449135,9.8792343345
1520530734983856010,0.0372006372,-0.0748481124,-0.0003970569,0.1612513725,0.1906554490,9.9046305914
1520530734988871010,0.0304171448,-0.0766121896,0.0044720322,0.0698562263,0.1858660055,9.9578213310
1520530734993888010,0.0241307576,-0.0798213377,0.0050003382,-0.0095132428,0.2314395231,9.9167122474
1520530734998903010,0.0173413807,-0.0818585886,0.0031035568,0.0061201375,0.2889970458,9.9374225446
1520530735003919010,0.0077874971,-0.0838961942,0.0009413635,0.1095409608,0.2769975869,9.9108604361
1520530735008935010,0.0022589699,-0.0827277231,-0.0009332975,0.1179589348,0.3009797397,9.9363222810
1520530735013949010,-0.0072909540,-0.0818514834,-0.0030732599,0.0638433877,0.3009839544,9.9566054557
1520530735018966010,-0.0140808994,-0.0830087533,-0.0071277392,0.0698562263,0.2997843457,9.9914124184
1520530735023982010,-0.0218752090,-0.0853399679,-0.0082132390,0.0806793357,0.3009826432,10.0273323661
1520530735028999010,-0.0334373701,-0.0853364841,-0.0111677746,0.1071358254,0.3237642507,9.9480268486
1520530735034014010,-0.0437417237,-0.0868003572,-0.0100775708,0.0999204191,0.3057777063,9.9504389069
1520530735039029010,-0.0540484061,-0.0888419003,-0.0108856344,0.1023255545,0.3453491529,9.9422419009
1520530735044045010,-0.0628464643,-0.0920564035,-0.0087293859,0.0590331169,0.3729327544,9.8810427586
1520530735049062010,-0.0728984645,-0.0932309788,-0.0068257880,0.0650459554,0.3669365840,9.8379907537
1520530735054077010,-0.0821978385,-0.0932302511,-0.0084317946,0.1011229868,0.3453492466,9.8527685215
1520530735059093010,-0.0917435010,-0.0914900558,-0.0067774452,0.0902998774,0.3189690002,9.8784667595
1520530735064108010,-0.1020460904,-0.0900327993,-0.0083704695,0.0542228460,0.2770018952,9.8393459436
1520530735069124010,-0.1058061129,-0.0827482060,-0.0088489834,0.0397920335,0.2338339639,9.8743928191
1520530735074141010,-0.1120800057,-0.0769251622,-0.0079812159,0.0325766272,0.2230422620,9.8337985351
1520530735079156010,-0.1173442536,-0.0655552204,-0.0108607192,-0.0059055396,0.2050581528,9.8109477579
1520530735084173010,-0.1198458452,-0.0565203709,-0.0118693199,-0.0191337845,0.2146523065,9.8006078632
1520530735089187010,-0.1228470472,-0.0469102336,-0.0101670821,0.0157406792,0.2230435733,9.8049088070
1520530735094203010,-0.1256007805,-0.0410923672,-0.0068709356,0.0085252729,0.2050570289,9.8526444796
1520530735099219010,-0.1278580713,-0.0381808649,-0.0063034125,0.0830844711,0.2038520815,9.8321634882
1520530735104235010,-0.1286067419,-0.0379058012,-0.0003477795,0.1071358254,0.2302312977,9.8446872451
1520530735109252010,-0.1333775150,-0.0390914208,0.0064158433,0.1239717734,0.2458188119,9.8224274378
1520530735114266010,-0.1366385584,-0.0385266856,0.0126489125,0.0975152837,0.2326303278,9.8041035085
1520530735119283010,-0.1406557838,-0.0388327571,0.0175239831,0.1131486640,0.2170402847,9.8690466056
1520530735124298010,-0.1454213192,-0.0353525821,0.0229704458,0.0626408200,0.2014553929,9.8904720105
1520530735129315010,-0.1531997080,-0.0280775769,0.0254754044,0.0470074397,0.1906643467,9.8743646850
1520530735134331010,-0.1622282516,-0.0146774330,0.0255944683,0.0554254137,0.1426980741,9.9126802736
1520530735139347010,-0.1687477234,-0.0044829913,0.0262255029,0.0518177106,0.1091224233,9.9662067522
1520530735144362010,-0.1785351385,0.0039574928,0.0284725418,0.0301714918,0.1187172325,10.0198667104
1520530735149378010,-0.1878171842,0.0144378655,0.0307342088,0.0229560855,0.1379040413,10.0152696555
1520530735154394010,-0.1958496357,0.0226000375,0.0283764772,0.0470074397,0.1558892744,9.9929372791
1520530735159410010,-0.2038842434,0.0290131740,0.0262759531,0.0854896066,0.1367000305,9.9867707070
1520530735164425010,-0.2134258561,0.0345450103,0.0266064731,0.0650459554,0.1786715376,9.9485780156
1520530735169441010,-0.2199602411,0.0342517943,0.0263458389,0.0902998774,0.1894618345,9.9053223590
1520530735174457010,-0.2237296804,0.0339574761,0.0268917085,0.0866921743,0.1954578176,9.9100002033
1520530735179473010,-0.2300123315,0.0321994233,0.0295954970,0.0578305492,0.1882652229,9.8742616781
1520530735184489010,-0.2347853431,0.0313139294,0.0331147921,0.0806793357,0.1283064222,9.8601520216
1520530735189505010,-0.2385502975,0.0333463168,0.0353017217,0.0975152837,0.1091188642,9.8228182537
1520530735194520010,-0.2410663672,0.0304285733,0.0363663417,0.1143512317,0.0779399019,9.8470898087
1520530735199536010,-0.2430739077,0.0289548375,0.0423109698,0.1047306900,0.0755423704,9.8041864616
1520530735204553010,-0.2458458985,0.0216618570,0.0449659856,0.1071358254,0.0563559363,9.8041817609
1520530735209569010,-0.2488679962,0.0167064101,0.0452043397,0.0878947420,0.0419677497,9.7764916190
1520530735214583010,-0.2503806309,0.0123314093,0.0465265232,0.0734639294,0.0371723120,9.7894203405
1520530735219600010,-0.2518955904,0.0088422170,0.0435266417,0.0409946012,0.0227851557,9.8025339926
1520530735224615010,-0.2539098936,0.0070982212,0.0416232157,0.0662485231,0.0431685760,9.8115654593
1520530735229631010,-0.2531538801,0.0106038721,0.0384019418,0.0025124344,0.0287838549,9.8586856175
1520530735234647010,-0.2531510103,0.0164483166,0.0322238479,-0.0491979773,-0.0011906283,9.8266781377
1520530735239663010,-0.2501248980,0.0284152029,0.0252752004,-0.0311594616,-0.0383653863,9.7905123488
1520530735244678010,-0.2491097879,0.0415541239,0.0156337201,0.0085252729,-0.0623512855,9.7785280292
1520530735249694010,-0.2408029699,0.0555605842,0.0095024707,-0.0191337845,-0.0611499909,9.7462560454
1520530735254711010,-0.2322560693,0.0622869003,0.0016919021,0.0265637886,-0.0623526904,9.7097859600
1520530735259727010,-0.2254703736,0.0669706502,-0.0053193233,0.0794767680,-0.1355043773,9.6930722519
1520530735264742010,-0.2159247542,0.0655232964,-0.0075125414,0.1492256953,-0.1726831627,9.6354845543
1520530735269758010,-0.2006008496,0.0614491903,-0.0073015888,0.1564411016,-0.1714845842,9.5970624042
1520530735274774010,-0.1840285464,0.0512557731,-0.0068691088,0.1516308308,-0.1918695968,9.6006155350
1520530735279790010,-0.1692178873,0.0390212465,-0.0061783773,0.1504282631,-0.1810772393,9.5843467007
1520530735284806010,-0.1539008865,0.0311649691,-0.0081606920,0.1227692057,-0.2218458595,9.5509534998
1520530735289821010,-0.1343080224,0.0259320977,-0.0098603874,0.1251743411,-0.2650151021,9.5172700113
1520530735294836010,-0.1142115491,0.0212814639,-0.0112860241,0.0999204191,-0.2853985224,9.5593728786
1520530735299852010,-0.0923547923,0.0189691513,-0.0151320562,0.0915024451,-0.2578176371,9.5419957598
1520530735304869010,-0.0725053407,0.0210362886,-0.0224581049,0.0963127160,-0.2542205905,9.5326482800
1520530735309885010,-0.0488934477,0.0172742985,-0.0287534326,0.0662485231,-0.2782010574,9.5643421799
1520530735314900010,-0.0285405634,0.0196315604,-0.0355370999,0.1011229868,-0.2386321396,9.5267755386
1520530735319916010,-0.0079363803,0.0219889208,-0.0423212340,0.1251743411,-0.2446297149,9.5614116028
1520530735324932010,0.0121608457,0.0196773759,-0.0467050908,0.1540359662,-0.2002637671,9.5808438631
1520530735329949010,0.0325024196,0.0124131209,-0.0513977528,0.1648590756,-0.1487015718,9.5899853876
1520530735334964010,0.0508345672,0.0045594818,-0.0539267600,0.2237848935,-0.1475070207,9.5673299354
1520530735339980010,0.0699156795,-0.0085460677,-0.0537917239,0.2682798989,-0.1619001712,9.5529651529
1520530735344994010,0.0864811258,-0.0213510192,-0.0574374400,0.2261900290,-0.1774857186,9.5836057741
1520530735350011010,0.1002850058,-0.0347514777,-0.0567537340,0.1756821850,-0.2002654530,9.6329296500
1520530735355027010,0.1150975585,-0.0449433989,-0.0571296246,0.1239717734,-0.2230450936,9.6113744497
1520530735360044010,0.1258936424,-0.0516388241,-0.0580124623,0.1095409608,-0.2446284973,9.6417517013
1520530735365058010,0.1387039002,-0.0557117294,-0.0586084802,0.1203640702,-0.2386336382,9.6369919333
1520530735370077010,0.1477525947,-0.0539584210,-0.0591530355,0.1468205599,-0.2206485923,9.7087698071
1520530735375092010,0.1525310125,-0.0510419766,-0.0594102183,0.1011229868,-0.2470261226,9.7011053171
1520530735380107010,0.1570621343,-0.0455046268,-0.0591058348,0.0385894657,-0.2686057799,9.7331129149
1520530735385123010,0.1598316630,-0.0393742707,-0.0628519265,0.0241586532,-0.2530158304,9.7773996444
1520530735390138010,0.1585835350,-0.0306215723,-0.0671116347,0.0458048720,-0.2362295504,9.7922804540
1520530735395153010,0.1563274400,-0.0239089594,-0.0713850375,0.0433997366,-0.2278353801,9.8411057249
1520530735400170010,0.1503048068,-0.0163294971,-0.0734804031,0.0674510909,-0.2110492874,9.8443416848
1520530735405185010,0.1432745163,-0.0099130531,-0.0766649777,0.0734639294,-0.1786729642,9.8709808983
1520530735410202010,0.1297074178,-0.0067087693,-0.0782385961,0.0518177106,-0.1630824529,9.9234728659
1520530735415217010,0.1156364005,-0.0049637904,-0.0790107588,0.0361843303,-0.1175138992,9.9293913165
1520530735420233010,0.1010603628,-0.0061379526,-0.0779103976,0.0542228460,-0.1007273382,9.9431450974
1520530735425249010,0.0854845790,-0.0055743996,-0.0730071885,0.0951101483,-0.0899382588,9.9729523442
1520530735430265010,0.0663901726,-0.0050107680,-0.0686385370,0.1732770496,-0.0467752914,9.9477443963
1520530735435281010,0.0467910986,-0.0067820518,-0.0629340073,0.1937207007,-0.0359846199,9.9196434314
1520530735440296010,0.0297010924,-0.0132225162,-0.0542937093,0.1648590756,-0.0419780741,9.9722266774
1520530735445312010,0.0116032564,-0.0196546332,-0.0488980952,0.1384025859,-0.0072009413,9.9375859591
1520530735450329010,-0.0047366757,-0.0269602146,-0.0435124174,0.1420102891,-0.0119977840,9.9329069455
1520530735455344010,-0.0258534418,-0.0360167023,-0.0378606645,0.1167563671,-0.0323812043,9.9447940700
1520530735460360010,-0.0419401384,-0.0415724212,-0.0330032067,0.1023255545,-0.0047998507,9.9588533633
1520530735465375010,-0.0570162256,-0.0421698388,-0.0297330987,0.1011229868,-0.0107954591,9.9356280360
1520530735470392010,-0.0738554975,-0.0462667451,-0.0256747630,0.0770716326,-0.0311789731,9.9207741445
1520530735475408010,-0.0886772553,-0.0465814209,-0.0191563479,0.0782742003,-0.0695515604,9.8975569792
1520530735480423010,-0.1012334504,-0.0433956825,-0.0136976399,0.1251743411,-0.0647586514,9.9087172442
1520530735485439010,-0.1162914527,-0.0297108876,-0.0119418761,0.0927050128,-0.0407733141,9.9461985005
1520530735490456010,-0.1290919917,-0.0201089606,-0.0085981606,0.1684667787,0.0059872618,9.9396047579
1520530735495470010,-0.1406397767,-0.0134211150,-0.0050084638,0.0277663563,0.0239853264,9.9328217017
1520530735500486010,-0.1511976324,-0.0178047593,-0.0017756569,0.0061201375,0.0119956080,9.9504762455
1520530735505502010,-0.1630104847,-0.0204376749,0.0003906385,0.0289689240,-0.0359717884,9.9247334560
1520530735510519010,-0.1713086269,-0.0248138771,0.0011843318,0.0794767680,-0.0275817392,9.8649643166
1520530735515534010,-0.1755858545,-0.0286035497,0.0011633659,0.1059332577,0.0011955704,9.8356251423
1520530735520550010,-0.1811175925,-0.0294733134,-0.0012679485,0.1143512317,-0.0251861745,9.8297582126
1520530735525565010,-0.1873907405,-0.0242381376,0.0014891941,0.1841001590,-0.0527718365,9.8012147592
1520530735530582010,-0.1896408568,-0.0149110767,0.0002118039,0.1480231276,-0.0575655884,9.7632198378
1520530735535598010,-0.1908826533,-0.0029597043,-0.0015885373,0.1468205599,-0.1067302521,9.7772252132
1520530735540613010,-0.1913672563,0.0104445154,-0.0017558878,0.1564411016,-0.1355103715,9.7852946446
1520530735545628010,-0.1921033776,0.0238493652,-0.0021933175,0.1732770496,-0.2110575295,9.7700965708
1520530735550644010,-0.1905807616,0.0334598179,0.0000416111,0.1444154245,-0.2398346518,9.8319991858
1520530735555661010,-0.1888067134,0.0436553234,0.0014688815,0.1408077214,-0.2506266346,9.8680712876
1520530735560677010,-0.1880493434,0.0454002837,0.0028335494,0.2129617841,-0.2446365521,9.8964167364
1520530735565691010,-0.1847741042,0.0497643188,0.0058368331,0.2586593572,-0.2314495665,9.8913105057
1520530735570709010,-0.1807479167,0.0517968446,0.0090914779,0.2610644926,-0.2062678049,9.8436146374
1520530735575724010,-0.1762179006,0.0544108795,0.0128907272,0.2562542218,-0.1966743069,9.7599777382
1520530735580741010,-0.1714434032,0.0526571587,0.0155739799,0.2887235500,-0.1882828528,9.7027084625
1520530735585756010,-0.1623968649,0.0526614315,0.0152866319,0.2839132792,-0.1906807590,9.6341911281
1520530735590773010,-0.1498303004,0.0520755725,0.0182348544,0.2718876021,-0.1774892777,9.6354574599
1520530735595786010,-0.1395294242,0.0503313020,0.0182023803,0.2971415240,-0.1846860871,9.6456779653
1520530735600803010,-0.1249533825,0.0529689428,0.0146782215,0.3079646335,-0.1822886492,9.6757860240
1520530735605819010,-0.1141436163,0.0561798631,0.0141415145,0.3392313940,-0.2014773311,9.6789868338
1520530735610836010,-0.1025748963,0.0623012818,0.0149783677,0.3873341025,-0.2122733414,9.7261770577
1520530735615850010,-0.0879913392,0.0675482716,0.0163440428,0.4246137016,-0.2542461596,9.7049365367
1520530735620868010,-0.0734059787,0.0739600710,0.0179891561,0.4342342433,-0.2458529259,9.6966997031
1520530735625883010,-0.0605842852,0.0771666799,0.0193425366,0.4354368110,-0.2386581771,9.7408424523
1520530735630898010,-0.0475107204,0.0809568847,0.0204293507,0.4558804621,-0.2794305437,9.7371967920
1520530735635915010,-0.0346862551,0.0862031853,0.0217982928,0.4234111339,-0.2878219978,9.7084674151
1520530735640930010,-0.0233674265,0.0931979307,0.0229128279,0.4498676236,-0.3333913944,9.7256864980
1520530735645945010,-0.0165708752,0.1016507403,0.0229646958,0.5111985769,-0.3525824179,9.7634590001
1520530735650962010,-0.0027394112,0.1080622443,0.0246112093,0.5172114155,-0.3513837457,9.7552642978
1520530735655978010,0.0055593033,0.1130219441,0.0235514163,0.5424653375,-0.4005504700,9.7097428203
1520530735660993010,0.0151133712,0.1182786196,0.0205976915,0.5352499312,-0.4521129462,9.7005661806
1520530735666009010,0.0241698556,0.1267381428,0.0184809918,0.5713269626,-0.4341286497,9.6618467383
1520530735671026010,0.0332229528,0.1328673181,0.0160759615,0.5845552074,-0.4880909990,9.6594463150
1520530735676041010,0.0450304890,0.1343470789,0.0093014935,0.6013911554,-0.4964862932,9.6523177659
1520530735681057010,0.0543283301,0.1358149287,0.0065898812,0.6062014263,-0.4653090168,9.6882670054
1520530735686072010,0.0636215881,0.1311513201,0.0084308644,0.6266450774,-0.4281372559,9.6810589062
1520530735691089010,0.0734142331,0.1244496736,0.0097142607,0.6699375151,-0.4365346106,9.6934292931
1520530735696104010,0.0804436455,0.1180361433,0.0118166517,0.7288633330,-0.3705864767,9.6567649691
1520530735701121010,0.0924959490,0.1072443446,0.0173934586,0.7613326612,-0.3585976013,9.6378429359
1520530735706136010,0.1050483922,0.0967535970,0.0194544586,0.7276607653,-0.3729846639,9.6161039744
1520530735711152010,0.1138288439,0.0839281110,0.0223163124,0.7805737446,-0.3597982402,9.5411988761
1520530735716167010,0.1268793056,0.0687695803,0.0265051767,0.7432941455,-0.3597953368,9.5229674296
1520530735721184010,0.1419412165,0.0553645151,0.0290803703,0.7108248173,-0.4041610036,9.5093810042
1520530735726200010,0.1555010975,0.0460375141,0.0319600334,0.7300659007,-0.4245478894,9.5115378900
1520530735731215010,0.1690667454,0.0422526465,0.0327175679,0.7192427913,-0.4881014889,9.5419209533
1520530735736230010,0.1856441960,0.0358472281,0.0331789481,0.6350630514,-0.5228700050,9.5474227939
1520530735741247010,0.1994563951,0.0300293232,0.0314855412,0.5989860200,-0.5144732122,9.5094150097
1520530735746262010,0.2122628775,0.0262616427,0.0257513744,0.6146194003,-0.5072795872,9.5441201466
1520530735751279010,0.2270729290,0.0166634170,0.0213217416,0.6013911554,-0.5108759783,9.5593602816
1520530735756294010,0.2398719744,0.0067737477,0.0166230736,0.5508833115,-0.4701012701,9.5935143111
1520530735761311010,0.2521681555,-0.0042860273,0.0135397220,0.5641115563,-0.4569117557,9.6700741938
1520530735766325010,0.2649710703,-0.0121396471,0.0102093451,0.5941757491,-0.3969570761,9.6464802213
1520530735771342010,0.2742515753,-0.0240783993,0.0084776544,0.6098091294,-0.3525900980,9.7148512833
1520530735776358010,0.2830283379,-0.0371843434,0.0072790967,0.6013911554,-0.3393988977,9.7765139856
1520530735781374010,0.2887945679,-0.0488447443,0.0098848976,0.6290502128,-0.2698509073,9.8168519860
1520530735786389010,0.2912920195,-0.0625490306,0.0135633879,0.6663298119,-0.2386761598,9.8187830143
1520530735791405010,0.2935331111,-0.0806270969,0.0182911822,0.7096222496,-0.2027053188,9.8322722796
1520530735796420010,0.2952658891,-0.1016133780,0.0208333120,0.6915837339,-0.1535391566,9.8289134806
1520530735801437010,0.2977554646,-0.1214381962,0.0250062093,0.6915837339,-0.1379503311,9.8254118474
1520530735806453010,0.2959734384,-0.1430224649,0.0326907990,0.6867734630,-0.1283568330,9.8475300480
1520530735811469010,0.2929346122,-0.1640208147,0.0390294391,0.7156350881,-0.1103719745,9.8611773140
1520530735816483010,0.2888929194,-0.1844418882,0.0472682134,0.7456992810,-0.0648069799,9.9352174658
1520530735821500010,0.2861039767,-0.2092405217,0.0581767669,0.7938019895,-0.0264382328,9.9672518754
1520530735826516010,0.2820644323,-0.2308395167,0.0710059291,0.7456992810,0.0155354284,10.0060299013
1520530735831532010,0.2730002756,-0.2512742143,0.0835827723,0.7252556298,-0.0048483666,10.0108973418
1520530735836547010,0.2646926224,-0.2655706022,0.0891707068,0.7000017079,-0.0276300677,10.0146517973
1520530735841563010,0.2551330072,-0.2763701397,0.0945171061,0.6747477859,0.0275323586,10.0566809962
1520530735846579010,0.2458286033,-0.2854263705,0.1017701984,0.7228504944,0.0503122802,10.0829198875
1520530735851596010,0.2327605271,-0.2892347861,0.1074470317,0.7204453590,0.0575073101,10.1212870320
1520530735856612010,0.2164283378,-0.2910047899,0.1131454940,0.7384838747,0.0766921520,10.1373627621
1520530735861627010,0.1998496875,-0.2898639607,0.1199488375,0.7697506352,0.0778888572,10.1777322997
1520530735866642010,0.1822624115,-0.2907610316,0.1259268486,0.7505095518,0.0730937941,10.2220857282
1520530735871660010,0.1649273164,-0.2901974393,0.1305627789,0.7204453590,0.0754944165,10.2549160467
1520530735876674010,0.1473440040,-0.2867171865,0.1341392232,0.5172114155,0.1534543725,10.2021974283
1520530735881690010,0.1262363568,-0.2846813945,0.1325707141,0.7529146872,0.1030721174,10.1639258869
1520530735886706010,0.1041440494,-0.2715915950,0.1378521966,0.8767791617,0.0167243599,10.2162630804
1520530735891723010,0.0823077846,-0.2579320398,0.1480074847,0.7204453590,0.0730961356,10.2386483700
1520530735896737010,0.0642440522,-0.2366709719,0.1492855576,0.5099960092,0.0839047899,10.1895518968
1520530735901754010,0.0456561365,-0.2252902228,0.1404787809,0.3404339617,0.2122260213,10.1608614477
1520530735906770010,0.0202780559,-0.2150660152,0.1273469790,0.9224767348,0.0970632092,10.2982521633
1520530735911786010,0.0027324892,-0.1847827565,0.1327512226,1.0896336469,-0.0612363454,10.2479694672
1520530735916801010,-0.0163199923,-0.1545030021,0.1392404500,0.8082328020,-0.0072531099,10.2680879894
1520530735921817010,-0.0323703309,-0.1268117477,0.1335295037,0.6242399420,0.0407268370,10.2233463313
1520530735926833010,-0.0469368890,-0.1133824474,0.1220253620,0.7348761716,0.0982769606,10.1768897236
1520530735931850010,-0.0627606039,-0.1014149325,0.1121357140,0.9405152505,0.1881964765,10.1306389883
1520530735936864010,-0.0753093462,-0.0862532912,0.1068637326,0.9814025527,0.1953881346,10.0477217796
1520530735941881010,-0.0913758408,-0.0740214422,0.1069869725,0.9152613285,0.2289692177,10.1389800446
1520530735946896010,-0.1039206784,-0.0600435499,0.1084697462,0.8888048388,0.2073867506,10.1009078535
1520530735951912010,-0.1162269781,-0.0562676596,0.1112269748,0.9765922819,0.2193713177,10.0477452130
1520530735956928010,-0.1285347362,-0.0559993102,0.1180157147,0.9826051204,0.1486215644,10.0082427843
1520530735961944010,-0.1405888629,-0.0536897138,0.1242784577,0.9597563339,0.1354327993,9.9306143982
1520530735966959010,-0.1498840694,-0.0551663047,0.1302366207,0.9429203859,0.1798023062,9.9690857539
1520530735971975010,-0.1569179903,-0.0598603512,0.1410359555,0.9693768756,0.0730767480,9.8434207668
1520530735976991010,-0.1644569709,-0.0657172189,0.1507451477,0.9705794433,0.0490938459,9.7830009629
1520530735982007010,-0.1684782070,-0.0715712514,0.1599067140,0.9669717402,0.0275095992,9.7447063757
1520530735987022010,-0.1709898036,-0.0765527249,0.1698837870,0.9020330837,0.0526966058,9.7058009982
1520530735992039010,-0.1714927228,-0.0818204246,0.1782316276,0.9345024119,0.0143215834,9.6392801751
1520530735997054010,-0.1699886778,-0.0876613646,0.1833247376,0.9020330837,-0.0348406452,9.5455104943
1520530736002071010,-0.1672243946,-0.0891237601,0.1857434013,0.8683611877,-0.0636173928,9.5098398374
1520530736007086010,-0.1624419779,-0.0850497904,0.1884711157,0.8996279482,-0.0947974790,9.4921337494
1520530736012102010,-0.1599261748,-0.0833019556,0.1890208788,0.8924125419,-0.1067883213,9.4922156732
1520530736017118010,-0.1476058479,-0.0795142314,0.1909207307,0.8599432137,-0.1547514094,9.4542277328
1520530736022134010,-0.1373024194,-0.0792180818,0.1906332723,0.8394995626,-0.1883257490,9.4928102107
1520530736027150010,-0.1252338736,-0.0751361578,0.1914536304,0.8010173958,-0.2063098583,9.4618244259
1520530736032165010,-0.1124127916,-0.0707567265,0.1901104443,0.8166507760,-0.2183024801,9.4430896502
1520530736037182010,-0.0980809253,-0.0643377412,0.1890505654,0.7938019895,-0.2362878069,9.4317081469
1520530736042197010,-0.0824942820,-0.0596687561,0.1887866520,0.8154482083,-0.2099084035,9.3722023887
1520530736047212010,-0.0649003727,-0.0576229010,0.1890400889,0.8130430729,-0.1847262672,9.3547690834
1520530736052229010,-0.0457995878,-0.0538172214,0.1852458755,0.7673454998,-0.1955149720,9.3575486875
1520530736057245010,-0.0287093739,-0.0517679211,0.1841475163,0.8250687500,-0.1919220464,9.2907411314
1520530736062260010,-0.0146321976,-0.0491428605,0.1852235712,0.7998148280,-0.2039114838,9.2561343123
1520530736067277010,0.0054841129,-0.0409805879,0.1868717551,0.7865865832,-0.1751310833,9.2876128906
1520530736072292010,0.0253445495,-0.0360229151,0.1882254059,0.8022199635,-0.1415563691,9.2990494229
1520530736077308010,0.0414306658,-0.0339776507,0.1884816431,0.6194296711,-0.0851825328,9.2612607381
1520530736082324010,0.0617740470,-0.0386136175,0.1816446217,0.6386707545,-0.0384175549,9.2377849739
1520530736087339010,0.0763409777,-0.0441412993,0.1804931296,1.0343155321,-0.1259856199,9.2433165237
1520530736092357010,0.0946917120,-0.0470807367,0.1926113932,1.0463412092,-0.1691556118,9.2746194561
1520530736097371010,0.1168093373,-0.0503027975,0.2020149740,0.8178533437,-0.1127782165,9.3139770644
1520530736102387010,0.1348951572,-0.0546606492,0.1997836565,0.7529146872,-0.1007817546,9.2599766782
1520530736107404010,0.1552312778,-0.0651264918,0.1937138111,0.7805737446,-0.1127753130,9.2527462916
1520530736112418010,0.1765834572,-0.0688959239,0.1898575970,0.8022199635,-0.1331623861,9.2734740705
1520530736117436010,0.1979413996,-0.0685867011,0.1863030519,0.7517121195,-0.1487472779,9.3123316348
1520530736122451010,0.2140243169,-0.0641892359,0.1787312428,0.7252556298,-0.1655331833,9.3230648124
1520530736127466010,0.2316146783,-0.0589119275,0.1692694814,0.6735452182,-0.1595334538,9.2910222524
1520530736132482010,0.2476937772,-0.0539163962,0.1560206547,0.6915837339,-0.1763228246,9.3361866615
1520530736137498010,0.2635279086,-0.0457222895,0.1452316616,0.7420915778,-0.1643353541,9.2973326052
1520530736142514010,0.2778512520,-0.0410312153,0.1365831591,0.7601300935,-0.1367565293,9.2936437027
1520530736147529010,0.2896659234,-0.0313795760,0.1250011114,0.7228504944,-0.0863897280,9.3044167428
1520530736152546010,0.2974769182,-0.0127126170,0.1194474566,0.7529146872,-0.1103748780,9.3483089735
1520530736157561010,0.3042763824,0.0012917956,0.1138600994,0.8010173958,-0.1235691690,9.4408251503
1520530736162576010,0.3130892285,0.0173359592,0.1085551158,0.8166507760,-0.1067824207,9.5173581148
1520530736167593010,0.3193914150,0.0339568082,0.1051530670,0.8166507760,-0.0983884377,9.6138078776
1520530736172608010,0.3236784123,0.0459096182,0.1036130038,0.8394995626,-0.0792039705,9.6635389621
1520530736177625010,0.3257011248,0.0561139633,0.1017932567,0.9068433545,-0.0144556326,9.7069818049
1520530736182640010,0.3247061774,0.0625189301,0.1037378528,0.9801999850,0.0622836412,9.7317601257
1520530736187657010,0.3229534563,0.0639605949,0.1091631532,0.9910230944,0.1066509940,9.7234765070
1520530736192671010,0.3204424831,0.0621967346,0.1145653998,1.0090616101,0.1582126273,9.6895484749
1520530736197687010,0.3156732507,0.0624694945,0.1207990463,1.0078590424,0.2049791975,9.6744067043
1520530736202703010,0.3121556317,0.0601246566,0.1253870759,1.0571643186,0.2073736382,9.7459773835
1520530736207720010,0.3066298213,0.0592352252,0.1302605007,1.0114667455,0.2301608654,9.7708049812
1520530736212735010,0.2985865808,0.0557252623,0.1340364014,1.0102641778,0.2109747123,9.7964025627
1520530736217752010,0.2925553187,0.0548451036,0.1353936630,1.0090616101,0.2397541761,9.7940619157
1520530736222766010,0.2814958415,0.0542631015,0.1335159313,1.0114667455,0.2193686016,9.7975448162
1520530736227783010,0.2729476865,0.0545657072,0.1281231051,1.0042513393,0.2145726018,9.8231868909
1520530736232799010,0.2611439531,0.0630250713,0.1230691385,0.9801999850,0.1809985432,9.8257780214
1520530736237815010,0.2485883030,0.0729410626,0.1180276876,0.9934282298,0.1438241598,9.9326027591
1520530736242832010,0.2357800330,0.0813978476,0.1137872256,1.0186821518,0.1258350866,9.9881574028
1520530736247846010,0.2227205935,0.0889760099,0.1111638365,0.9777948496,0.1114485859,10.0490008924
1520530736252862010,0.2099085794,0.0930547426,0.1095954872,0.9982385007,0.1054512916,10.0778613520
1520530736257878010,0.1943360104,0.0971200090,0.1126315521,1.0523540478,0.1510144130,10.1214516599
1520530736262894010,0.1767531841,0.1017694421,0.1148641592,1.0463412092,0.1378243366,10.1784681016
1520530736267910010,0.1619286624,0.1023420317,0.1165194175,0.9609589016,0.1702077779,10.2094833313
1520530736272926010,0.1455946305,0.1011635381,0.1189757752,0.9994410684,0.1762004829,10.2091029228
1520530736277942010,0.1285105677,0.1005573202,0.1252256218,1.0848233760,0.1797912543,10.2164033635
1520530736282958010,0.1096720273,0.1013985945,0.1347364017,1.1088747303,0.2229584364,10.2289107496
1520530736287973010,0.0908268067,0.0999204475,0.1399006625,1.0403283706,0.3069036046,10.2004424852
1520530736292989010,0.0719781125,0.0966976355,0.1436988554,1.0066564747,0.3560709845,10.2262894509
1520530736298004010,0.0551345321,0.0905661365,0.1458478082,0.9826051204,0.4376144065,10.2136604534
1520530736303021010,0.0332703421,0.0882199387,0.1483055415,1.1437491940,0.4208138901,10.2678912564
1520530736308036010,0.0114128286,0.0867296838,0.1575335915,1.1990673088,0.3980259137,10.3371036785
1520530736313051010,-0.0079206097,0.0933991802,0.1668192206,1.0222898549,0.4124293668,10.3620531688
1520530736318068010,-0.0265051186,0.0980365646,0.1733824290,0.9044382191,0.4268282305,10.3341326335
1520530736323084010,-0.0448463695,0.1006518381,0.1734365075,0.9633640370,0.3992434115,10.3661260112
1520530736328101010,-0.0661965652,0.1073416713,0.1748800394,1.0307078289,0.4028355878,10.3491970047
1520530736333116010,-0.0850296874,0.1146043317,0.1803815387,0.9850102558,0.3476786874,10.3229662755
1520530736338132010,-0.1053749073,0.1212952872,0.1815526579,0.8839945680,0.3428899931,10.2902520029
1520530736343147010,-0.1242169916,0.1268314934,0.1789244418,0.8190559115,0.3488907529,10.2873917974
1520530736348162010,-0.1405491221,0.1306225622,0.1754665823,0.8791842971,0.3189075593,10.2659171869
1520530736353179010,-0.1591441338,0.1320751129,0.1744300516,0.8743740263,0.3189079339,10.2892068862
1520530736358194010,-0.1784935281,0.1323581879,0.1747387583,0.8503226720,0.3321003518,10.2278344950
1520530736363210010,-0.1965875691,0.1329382387,0.1731535332,0.8214610469,0.3117172124,10.1990816963
1520530736368227010,-0.2121700254,0.1341093275,0.1688626280,0.8010173958,0.3261084897,10.1946180743
1520530736373243010,-0.2287527489,0.1390687497,0.1643319440,0.8587406460,0.3237057132,10.1313027968
1520530736378259010,-0.2445864138,0.1411175358,0.1586954453,0.8407021303,0.3045208713,10.1454428095
1520530736383275010,-0.2591696142,0.1379182505,0.1543693270,0.8659560523,0.3105146066,10.1358940050
1520530736388290010,-0.2742564236,0.1341367276,0.1497691501,0.8563355106,0.3428921473,10.0964431788
1520530736393307010,-0.2908471135,0.1320978222,0.1470789332,0.8767791617,0.3273017296,10.0509357801
1520530736398322010,-0.3026659052,0.1250941386,0.1492118823,0.9080459222,0.3308967157,10.0018178945
1520530736403338010,-0.3152402165,0.1186809416,0.1483746729,0.8695637554,0.3297005724,9.9952207619
1520530736408354010,-0.3255525795,0.1105115822,0.1507664753,0.8863997034,0.3608769122,9.9973507762
1520530736413368010,-0.3383774878,0.1038032600,0.1512802390,0.8382969949,0.3548849564,9.9966626812
1520530736418385010,-0.3506919734,0.1005815510,0.1556073888,0.8671586200,0.3177093555,10.0475523434
1520530736423400010,-0.3597376374,0.0991108859,0.1594007180,0.8827920002,0.2781365039,10.0578980614
1520530736428417010,-0.3647523193,0.1028765196,0.1670142376,0.8274738854,0.2505605825,10.0712469723
1520530736433433010,-0.3715313660,0.1051954679,0.1705617205,0.7757634738,0.2541620312,10.1193946839
1520530736438449010,-0.3750408424,0.1101410706,0.1730409601,0.8034225312,0.2877358089,10.0760933998
1520530736443465010,-0.3767949239,0.1118799474,0.1763041165,0.8322841563,0.3129155099,10.0862472179
1520530736448479010,-0.3730228501,0.1121655245,0.1790047977,0.8431072657,0.3896596541,9.9837983667
1520530736453497010,-0.3692640233,0.1010798206,0.1843242375,0.7817763124,0.4076515371,10.0052963756
1520530736458511010,-0.3634887333,0.0949506267,0.1888660983,0.8827920002,0.4304273377,9.9659401830
1520530736463527010,-0.3509246426,0.0888117078,0.1979946378,0.8936151097,0.4520110224,9.9018958719
1520530736468544010,-0.3358519153,0.0809320221,0.2046702585,0.7853840155,0.5059807708,9.8773295397
1520530736473559010,-0.3190193003,0.0750992732,0.2089232607,0.7132299527,0.5263717776,9.8071211831
1520530736478575010,-0.2974144186,0.0707398862,0.2077675926,0.7048119787,0.5371646970,9.7920847230
1520530736483591010,-0.2747999899,0.0681226443,0.2090583092,0.6482912962,0.5179828523,9.7275735087
1520530736488607010,-0.2504251561,0.0640382424,0.2143928318,0.6194296711,0.5347730661,9.7173787637
1520530736493623010,-0.2248003752,0.0582198659,0.2145713102,0.6086065617,0.5167868026,9.6663673153
1520530736498638010,-0.1981720691,0.0518220279,0.2136612920,0.5809475043,0.5035984122,9.5980829010
1520530736503654010,-0.1675218841,0.0454221230,0.2140965356,0.5989860200,0.4904064626,9.5770015967
1520530736508671010,-0.1371195675,0.0410596261,0.2153594453,0.5857577751,0.4364461738,9.5306972145
1520530736513685010,-0.1069719369,0.0343666829,0.2163344912,0.5725295303,0.3800876042,9.5029894741
1520530736518702010,-0.0750657007,0.0265052486,0.2186501071,0.5605038532,0.3009452728,9.4811029660
1520530736523718010,-0.0424038117,0.0186382823,0.2231286900,0.5593012855,0.2158063964,9.4381983678
1520530736528734010,-0.0122556127,0.0110653581,0.2262614337,0.5532884469,0.2325948307,9.4242947949
1520530736533750010,0.0186411588,-0.0005873826,0.2296322000,0.5148062801,0.2313986874,9.3746983360
1520530736538766010,0.0470256909,-0.0113654974,0.2324732109,0.4522727590,0.2421958215,9.3578643156
1520530736543782010,0.0749055592,-0.0230150489,0.2342263025,0.5075908738,0.1870310536,9.3445960891
1520530736548797010,0.1002767909,-0.0329238337,0.2384323129,0.4258162693,0.1774442991,9.2280248482
1520530736553813010,0.1211237185,-0.0440021142,0.2434494696,0.3248005814,0.1870452900,9.2348094380
1520530736558828010,0.1414668684,-0.0530277880,0.2436132953,0.3223954460,0.1642618092,9.2859893996
1520530736563843010,0.1575360877,-0.0643905825,0.2453905460,0.3512570711,0.1774501061,9.3554242527
1520530736568861010,0.1736112033,-0.0710897676,0.2466622742,0.3741058577,0.1654569223,9.3714835654
1520530736573876010,0.1856647458,-0.0783732971,0.2479370238,0.3536622065,0.1450731273,9.4147017565
1520530736578892010,0.1944542615,-0.0842040975,0.2503111399,0.3139774720,0.1462753585,9.4545997484
1520530736583908010,0.2014846422,-0.0897427458,0.2521496543,0.3296108523,0.1150964899,9.4835315844
1520530736588923010,0.2070072339,-0.0938185063,0.2515671714,0.3524596388,0.1090990083,9.4995850504
1520530736593939010,0.2125298256,-0.0978942668,0.2509846885,0.3296108523,0.1174947708,9.5009614050
1520530736598955010,0.2150341497,-0.1031331047,0.2490461844,0.3211928783,0.1426773753,9.5289102392
1520530736603971010,0.2150347652,-0.1028424486,0.2493189534,0.3019517949,0.1103020824,9.5035619252
1520530736608987010,0.2137751073,-0.1037105386,0.2468797047,0.2670773312,0.1246944836,9.4911037563
1520530736614002010,0.2125124150,-0.1063247505,0.2436154798,0.3115723366,0.1498729671,9.5045918406
1520530736619018010,0.2087409175,-0.1045633515,0.2382249013,0.2502413832,0.1546743054,9.5307512881
1520530736624034010,0.2027081696,-0.1028042955,0.2333796150,0.2165694873,0.1534777875,9.5543230781
1520530736629050010,0.1959217056,-0.0992899434,0.2258436085,0.2466336801,0.2038393438,9.5260898845
1520530736634067010,0.1876261706,-0.0975281314,0.2196497932,0.2297977321,0.2002432338,9.5704187336
1520530736639083010,0.1770708357,-0.0951880785,0.2148173542,0.2081515133,0.2110371834,9.6298882422
1520530736644097010,0.1647606352,-0.0887649609,0.2083960300,0.1744796173,0.2338234740,9.6906252520
1520530736649117010,0.1494271060,-0.0878786023,0.2016675220,0.2382157061,0.2721910035,9.6748595937
1520530736654130010,0.1325926406,-0.0843813002,0.1990200105,0.2285951644,0.3261530719,9.7423049632
1520530736659145010,0.1149971121,-0.0843728951,0.1933712173,0.2478362478,0.3225541520,9.7456076222
1520530736664160010,0.0976579751,-0.0846739867,0.1944833817,0.2658747635,0.2901759557,9.7721929295
1520530736669177010,0.0750460046,-0.0823575990,0.1967075387,0.2117592164,0.2961758725,9.8377938718
1520530736674192010,0.0541894837,-0.0791503429,0.1929830881,0.0975152837,0.3009813319,9.8633061978
1520530736679210010,0.0363391791,-0.0823501798,0.1883924913,-0.0347671647,0.2122552432,9.8716531488
1520530736684225010,0.0172203289,-0.0931206791,0.1815820607,0.1155537994,0.2374254846,9.8225175585
1520530736689240010,0.0001228152,-0.0992435354,0.1804849295,0.1588462370,0.3477430318,9.7801514149
1520530736694256010,-0.0134522966,-0.1042082165,0.1826367073,0.1648590756,0.4160935676,9.7335404791
1520530736699272010,-0.0237542784,-0.1053872608,0.1861640472,0.1636565079,0.4328816272,9.7288872376
1520530736704288010,-0.0322975212,-0.1071498420,0.1902247657,0.1239717734,0.4436769818,9.7129929651
1520530736709303010,-0.0393378559,-0.1129934010,0.1950631984,0.0951101483,0.4700603189,9.7806525103
1520530736714318010,-0.0478838705,-0.1167956738,0.1991083553,0.1107435285,0.5228212800,9.7850974695
1520530736719335010,-0.0541595785,-0.1165278752,0.2069680775,0.1347948828,0.5527979174,9.8266713172
1520530736724351010,-0.0561624146,-0.1156756338,0.2148243115,0.1275794765,0.5456036368,9.8267485636
1520530736729368010,-0.0604296647,-0.1156933330,0.2207842555,0.0385894657,0.5060389337,9.8218426062
1520530736734384010,-0.0616829089,-0.1154119103,0.2243059089,0.0842870388,0.5108319363,9.8027988334
1520530736739398010,-0.0631856053,-0.1142586179,0.2286463359,0.1047306900,0.4808518335,9.8037912249
1520530736744414010,-0.0674558389,-0.1133883233,0.2294725771,-0.0239440553,0.4005194467,9.7993112919
1520530736749431010,-0.0672069551,-0.1133802121,0.2264961055,-0.0407800033,0.3885293537,9.7785682649
1520530736754446010,-0.0724922712,-0.1154044890,0.2199972436,-0.0347671647,0.3729400599,9.7146070236
1520530736759463010,-0.0750169031,-0.1182938238,0.2105105736,-0.0744518993,0.3249775338,9.7882551331
1520530736764477010,-0.0787915252,-0.1191563424,0.2056410791,-0.0912878472,0.3165848620,9.7524007267
1520530736769494010,-0.0813112761,-0.1194275870,0.1977976923,-0.0660339253,0.3045914909,9.6603572415
1520530736774509010,-0.0838240331,-0.1150388645,0.1908015125,-0.0516031127,0.3333697372,9.6683237244
1520530736779525010,-0.0848245200,-0.1112498026,0.1902911877,-0.0407800033,0.3381654559,9.6693758455
1520530736784541010,-0.0873352658,-0.1100874343,0.1911163850,-0.0900852795,0.3153856280,9.6966072812
1520530736789558010,-0.0870788195,-0.1062993370,0.1911448184,-0.0383748679,0.2746108262,9.6601172587
1520530736794572010,-0.0863138478,-0.1025307104,0.1984770575,-0.0479954096,0.2925986818,9.6915712458
1520530736799589010,-0.0875600588,-0.0993456405,0.2058085842,-0.1129340661,0.2362441395,9.6852854141
1520530736804605010,-0.0860483611,-0.1005287987,0.2125605389,-0.1153392015,0.2446383098,9.6829763509
1520530736809619010,-0.0845378082,-0.1028789518,0.2198446931,-0.1009083890,0.2434380455,9.6944584991
1520530736814636010,-0.0860460089,-0.1075613626,0.2271166633,-0.0612236544,0.2302444101,9.6754907917
1520530736819652010,-0.0842871053,-0.1122432219,0.2346531119,-0.0744518993,0.2206523169,9.6733046141
1520530736824667010,-0.0830295213,-0.1151733288,0.2408511031,-0.1442008266,0.2470388385,9.6844170775
1520530736829684010,-0.0852936376,-0.1195566377,0.2451506916,-0.1802778580,0.2218596994,9.6150641481
1520530736834699010,-0.0835347261,-0.1213115400,0.2478395450,-0.1634419100,0.2254558095,9.6218696330
1520530736839715010,-0.0847881427,-0.1198587518,0.2492057235,-0.1971138060,0.2734240489,9.6151777373
1520530736844730010,-0.0835315114,-0.1178098267,0.2459724008,-0.2512293531,0.2986102125,9.5645455747
1520530736849748010,-0.0845380592,-0.1145860515,0.2389645283,-0.2909140876,0.3261935330,9.5184191886
1520530736854763010,-0.0870475191,-0.1087447769,0.2336027393,-0.2800909782,0.3345866730,9.5310892412
1520530736859779010,-0.0875450868,-0.0996880152,0.2247445739,-0.3149654419,0.3249962658,9.5465459140
1520530736864793010,-0.0923157853,-0.0894586480,0.2126566843,-0.2416088114,0.3046051653,9.5725810953
1520530736869811010,-0.0928125611,-0.0798191173,0.2038029650,-0.2247728634,0.3082012753,9.6188994746
1520530736874826010,-0.0988333830,-0.0681478884,0.1971394423,-0.1971138060,0.2854154531,9.7023268405
1520530736879843010,-0.1018321112,-0.0529846911,0.1926613632,-0.1225546078,0.1738895868,9.7574927853
1520530736884858010,-0.1035742158,-0.0386995257,0.1897975566,-0.0516031127,0.1558969545,9.8056297732
1520530736889874010,-0.1048172512,-0.0302564226,0.1922992728,0.0205509501,0.1187179818,9.8375037500
1520530736894888010,-0.1088304739,-0.0279414903,0.1977354429,0.0121329761,0.0479693524,9.9085454576
1520530736899906010,-0.1065702429,-0.0314481450,0.2017627538,0.0554254137,0.0155891892,9.8674806094
1520530736904922010,-0.1015509663,-0.0410829897,0.2095258885,0.1528333985,0.0071876198,9.8014606237
1520530736909937010,-0.0965299373,-0.0521871405,0.2218771880,0.1552385339,-0.0036048313,9.7596105553
1520530736914952010,-0.0887509567,-0.0679523607,0.2341877842,0.1841001590,-0.0503735557,9.6896466010
1520530736919968010,-0.0809739519,-0.0837110250,0.2440634673,0.1672642110,-0.0875455975,9.6747388499
1520530736924985010,-0.0721897758,-0.0994758513,0.2563721966,0.1672642110,-0.0851473167,9.6631150716
1520530736930001010,-0.0606437747,-0.1164022191,0.2675847160,0.2069489456,-0.1211246202,9.6616017410
1520530736935016010,-0.0475793367,-0.1266312510,0.2807393874,0.1937207007,-0.1343141346,9.6431490561
1520530736940032010,-0.0304950427,-0.1380264310,0.2946893364,0.1901129976,-0.1846777514,9.6560168670
1520530736945047010,-0.0114046665,-0.1514554160,0.3067261689,0.2189746227,-0.2506327225,9.6546381153
1520530736950064010,0.0094380779,-0.1669102918,0.3138743465,0.2382157061,-0.2974006976,9.6463614310
1520530736955080010,0.0320477903,-0.1762439464,0.3205248501,0.2225823258,-0.2902046375,9.6743980356
1520530736960096010,0.0538965259,-0.1896521808,0.3252518093,0.1925181330,-0.2949988577,9.7188568096
1520530736965111010,0.0775002683,-0.2036315686,0.3259128669,0.1384025859,-0.2949946430,9.7484371360
1520530736970127010,0.1036181948,-0.2138088612,0.3217283313,0.0662485231,-0.2889933212,9.8258350937
1520530736975143010,0.1249703349,-0.2158219734,0.3149094508,0.0662485231,-0.3261666744,9.8409792146
1520530736980159010,0.1460807735,-0.2085006811,0.3043745333,0.0421971689,-0.3369570650,9.9121146210
1520530736985174010,0.1644377061,-0.1924352939,0.2925587127,0.0686536586,-0.3885221637,9.9479338539
1520530736990190010,0.1863217530,-0.1699587971,0.2810558119,0.1011229868,-0.4304946073,10.0092523738
1520530736995205010,0.2049408126,-0.1439774964,0.2660685588,0.0566279814,-0.4724610567,10.0875900327
1520530737000222010,0.2233154772,-0.1142141226,0.2532750397,0.0650459554,-0.5480075590,10.1712561304
1520530737005238010,0.2384271696,-0.0827088207,0.2423947477,0.0349817626,-0.5468060771,10.2807891192
1520530737010254010,0.2532845249,-0.0544132176,0.2331137440,0.0638433877,-0.5623971505,10.3746570595
1520530737015269010,0.2678875469,-0.0278638348,0.2230082308,0.0241586532,-0.6007665532,10.5122137319
1520530737020286010,0.2787233211,-0.0030795330,0.2185778437,0.0373868980,-0.6283478132,10.6422719939
1520530737025302010,0.2898081517,0.0205415143,0.2133264598,0.0987178514,-0.5899800963,10.7415819972
1520530737030318010,0.3003922663,0.0418145347,0.2142807804,0.1456179922,-0.5911828895,10.8015581550
1520530737035333010,0.3127242487,0.0528810446,0.2184005766,0.1792898882,-0.5552112993,10.8802211221
1520530737040349010,0.3212842826,0.0613199747,0.2238600954,0.2165694873,-0.5096468666,10.9634881952
1520530737045364010,0.3316027418,0.0668348223,0.2333523047,0.2454311124,-0.4257092848,11.0247190497
1520530737050380010,0.3379000630,0.0703003902,0.2458124249,0.2658747635,-0.3657538559,11.1302166966
1520530737055396010,0.3416880027,0.0760945929,0.2588360888,0.2574567895,-0.2926056344,11.2231988186
1520530737060412010,0.3484853341,0.0807397360,0.2661637958,0.2105566487,-0.1966707478,11.3002632696
1520530737065427010,0.3492496942,0.0856811850,0.2707994683,0.1828975913,-0.1103304832,11.3841226582
1520530737070443010,0.3500149834,0.0932538359,0.2722085978,0.1937207007,-0.0239932156,11.5059582355
1520530737075459010,0.3502707711,0.0970441185,0.2714253935,0.1408077214,-0.0000062861,11.5692056447
1520530737080476010,0.3470052977,0.0993797423,0.2692848784,0.1191615025,0.0455627359,11.6658298490
1520530737085492010,0.3404748330,0.1037566915,0.2660838088,0.0542228460,0.0947325509,11.7744933669
1520530737090507010,0.3331927183,0.1107601767,0.2612808717,-0.0010952688,0.1199188081,11.8563573202
1520530737095522010,0.3223933452,0.1189300069,0.2556817233,0.0001072989,0.0803470805,11.9121671131
1520530737100539010,0.3085790448,0.1270964704,0.2508998134,0.0301714918,0.0611584922,12.0002161367
1520530737105555010,0.2927471323,0.1276759505,0.2498514795,0.0602356846,0.0587578698,12.0580330466
1520530737110571010,0.2731441065,0.1259177785,0.2506861831,0.0289689240,0.0887388156,12.1036317588
1520530737115585010,0.2537895215,0.1227056960,0.2504271210,-0.0047029719,0.0971354210,12.1760042402
1520530737120603010,0.2301624566,0.1177370768,0.2525975677,-0.0155260813,0.1139242299,12.1993360940
1520530737125618010,0.2075383915,0.1127761357,0.2520606885,-0.0383748679,0.1307139754,12.1484077854
1520530737130634010,0.1859170990,0.1048966441,0.2533935329,-0.0347671647,0.1546965029,12.0704856385
1520530737135649010,0.1630332004,0.0938172579,0.2525398898,-0.1141366338,0.1594992461,12.0491727597
1520530737140665010,0.1396407254,0.0801232268,0.2486911675,-0.1514162329,0.1427141836,12.0634977147
1520530737145680010,0.1169945885,0.0641129835,0.2394123425,-0.1490110975,0.1870821920,12.0587824632
1520530737150697010,0.0933427780,0.0498601231,0.2266316262,-0.2055317800,0.2422470535,12.0569545233
1520530737155713010,0.0706935282,0.0356163977,0.2106024922,-0.3053449002,0.3393852016,12.0764256298
1520530737160729010,0.0482986157,0.0245823711,0.1929740701,-0.3378142284,0.3753619431,12.0290586840
1520530737165744010,0.0251523157,0.0158813107,0.1745531952,-0.3185731450,0.4569019933,11.9962518573
1520530737170760010,0.0047725492,0.0098081646,0.1545239187,-0.3534476087,0.4688961137,11.9291752612
1520530737175777010,-0.0138501484,0.0025716265,0.1339413910,-0.4159811297,0.4724984053,11.8275117482
1520530737180792010,-0.0307130054,-0.0037886120,0.1128211737,-0.4520581611,0.4617089513,11.7558204988
1520530737185808010,-0.0468244318,-0.0127746580,0.0930322779,-0.3642707181,0.4449141482,11.6538758764
1520530737190825010,-0.0616760278,-0.0220639796,0.0778381057,-0.3678784212,0.4497109908,11.5562862220
1520530737195839010,-0.0750251980,-0.0351399809,0.0623416871,-0.3991451818,0.4521117068,11.5298589039
1520530737200857010,-0.0878672894,-0.0473525582,0.0509091928,-0.4616787028,0.4437225942,11.4723685545
1520530737205871010,-0.0974425941,-0.0633686083,0.0456642866,-0.4231965360,0.4281307716,11.4324962996
1520530737210888010,-0.1060112138,-0.0805600008,0.0441962636,-0.3594604472,0.4485111948,11.4492882122
1520530737215902010,-0.1123130945,-0.0977672610,0.0489465958,-0.3510424732,0.4676967859,11.4038639532
1520530737220919010,-0.1193693618,-0.1176074754,0.0574659629,-0.3510424732,0.5600305985,11.4351518008
1520530737225934010,-0.1229114521,-0.1415307939,0.0678414940,-0.3762963952,0.6199895866,11.4504470114
1520530737230950010,-0.1264531465,-0.1651627278,0.0782192482,-0.4592735674,0.7195247043,11.3570239449
1520530737235967010,-0.1305007748,-0.1884910907,0.0840008786,-0.5073762759,0.8070657016,11.2621109811
1520530737240983010,-0.1325319711,-0.2021796668,0.0811946684,-0.6083919638,0.8466452030,11.2653799056
1520530737245997010,-0.1340488672,-0.2074186232,0.0787225402,-0.6276330472,0.8562398249,11.1958291945
1520530737251014010,-0.1345510611,-0.2042004785,0.0738781014,-0.5903534481,0.9149948022,11.2198140632
1520530737256030010,-0.1378155583,-0.1980630157,0.0666261144,-0.5506687136,0.9545633454,11.2077677686
1520530737261045010,-0.1415834020,-0.1928013603,0.0599094834,-0.5638969584,0.9533652352,11.2811127627
1520530737266061010,-0.1478636655,-0.1884206705,0.0553552176,-0.5446558750,0.9149912431,11.2925843402
1520530737271077010,-0.1566614493,-0.1875383079,0.0510494878,-0.5109839791,0.9245817440,11.2225186066
1520530737276093010,-0.1667145433,-0.1872457626,0.0491765585,-0.4893377602,0.9305757603,11.1363034163
1520530737281110010,-0.1777640352,-0.1811288343,0.0484321415,-0.4797172185,0.9305750110,11.0548596990
1520530737286125010,-0.1905679614,-0.1738572551,0.0514875263,-0.4809197862,0.9641510365,10.9316514034
1520530737291140010,-0.2038739169,-0.1674658538,0.0567015426,-0.4580709997,0.9473612910,10.8593924530
1520530737296156010,-0.2179438483,-0.1701149526,0.0645535023,-0.5157942499,0.9449675059,10.7204993598
1520530737301172010,-0.2352764853,-0.1698522144,0.0727043062,-0.5626943907,0.8862132779,10.5745830164
1520530737306188010,-0.2556279151,-0.1701654140,0.0778802597,-0.6204176409,0.8430487183,10.4566482720
1520530737311204010,-0.2727089396,-0.1675620316,0.0825312849,-0.6961794069,0.7567165084,10.2459596833
1520530737316219010,-0.2910509824,-0.1655295271,0.0825809173,-0.7755488759,0.6619905965,10.0480979787
1520530737321237010,-0.3076326984,-0.1614515428,0.0807490229,-0.7791565791,0.6068304180,9.8657302827
1520530737326252010,-0.3244725701,-0.1599851912,0.0748393991,-0.8585260481,0.5708623869,9.6643248485
1520530737331267010,-0.3413109481,-0.1582310972,0.0702847278,-0.8356772616,0.5109035861,9.4665964472
1520530737336283010,-0.3546261714,-0.1529797390,0.0660207454,-0.8116259073,0.4437498492,9.2421340459
1520530737341299010,-0.3661860900,-0.1518129024,0.0638867398,-0.8332721261,0.3514177225,9.0297624324
1520530737346314010,-0.3775057889,-0.1558777771,0.0568424259,-0.8356772616,0.2458935526,8.8683507347
1520530737351331010,-0.3888299766,-0.1637328359,0.0505808495,-0.7599154957,0.1487572777,8.7038457351
1520530737356347010,-0.3953840186,-0.1750833668,0.0445542743,-0.6925717037,0.0672104840,8.4789759839
