#timestamp [ns],w_RS_S_x [rad s^-1],w_RS_S_y [rad s^-1],w_RS_S_z [rad s^-1],a_RS_S_x [m s^-2],a_RS_S_y [m s^-2],a_RS_S_z [m s^-2]
1520621175965364459,-0.0793781088,-0.0495083772,-0.0129732919,-0.2031266446,-0.2853749201,10.1352595222
1520621175970381459,-0.0766342353,-0.0643671767,-0.0133623491,-0.3630681504,-0.4124713482,10.1404266765
1520621175975395459,-0.0718851539,-0.0797933889,-0.0191705042,-0.5254147916,-0.5959271889,10.0712949869
1520621175980411459,-0.0701497531,-0.0887877416,-0.0333110735,-0.7743463082,-0.7458003542,10.0912962603
1520621175985426459,-0.0664049143,-0.0928022747,-0.0568866905,-0.9366929495,-0.9388493183,10.0965511384
1520621175990442459,-0.0656845764,-0.0973738063,-0.0904713511,-0.9835930903,-1.0215863548,10.0633861453
1520621175995458459,-0.0647179068,-0.1039776468,-0.1267774990,-0.8164361782,-1.0168028118,10.0919702079
1520621176000472459,-0.0587260644,-0.1155527229,-0.1558260346,-0.6216202087,-0.8825142573,9.9539721801
1520621176005488459,-0.0484602601,-0.1294739553,-0.1786777336,-0.5687072293,-0.7686000381,9.8011052124
1520621176010504459,-0.0336727979,-0.1466073865,-0.1983157368,-0.3582578795,-0.5875462247,9.7628537947
1520621176015520459,-0.0098339323,-0.1669723688,-0.2069026143,-0.0528056804,-0.3645298956,9.7120153112
1520621176020535459,0.0215445842,-0.1934833381,-0.2044577965,0.1432128568,-0.1834749582,9.5390956555
1520621176025550459,0.0546890454,-0.2188455625,-0.1955142519,0.2706850343,-0.0335923332,9.4575208193
1520621176030567459,0.0931151767,-0.2427568095,-0.1835933883,0.3909418056,0.1126934324,9.3783440093
1520621176035582459,0.1330651042,-0.2591104072,-0.1645833315,0.4606907330,0.2122166553,9.3334065906
1520621176040598459,0.1790582980,-0.2681843131,-0.1428234399,0.4895523581,0.3225353264,9.2714244605
1520621176045613459,0.2212839500,-0.2740464533,-0.1240080984,0.5184139832,0.3681004146,9.2710991042
1520621176050627459,0.2685438036,-0.2746653450,-0.1038093463,0.4775266810,0.3681035991,9.2029305828
1520621176055645459,0.3122936554,-0.2697514944,-0.0827501839,0.4354368110,0.3980853878,9.1789060033
1520621176060659459,0.3545398543,-0.2601687978,-0.0643581106,0.4258162693,0.3549170818,9.2150682025
1520621176065676459,0.3945221723,-0.2491162244,-0.0510910935,0.3596750451,0.3165497396,9.2215601193
1520621176070690459,0.4309937436,-0.2319430407,-0.0388530410,0.3187877429,0.2565959028,9.2196922702
1520621176075706459,0.4599289062,-0.2112689119,-0.0292797688,0.2851158469,0.1582690106,9.2979795426
1520621176080722459,0.4823189615,-0.1940721044,-0.0278374156,0.3211928783,0.0707289499,9.3453616548
1520621176085737459,0.5001803139,-0.1809571809,-0.0261472388,0.2815081438,-0.0036146656,9.3853333151
1520621176090753459,0.5137670379,-0.1684208728,-0.0266179410,0.1804924559,-0.0899449087,9.4596158014
1520621176095768459,0.5215727520,-0.1541268671,-0.0313933043,0.2285951644,-0.1055374806,9.4754328159
1520621176100783459,0.5296258837,-0.1462592480,-0.0302660326,0.3632827482,0.0119677910,9.4635479587
1520621176105799459,0.5356814131,-0.1343370714,-0.0201758893,0.4534753267,0.1678490216,9.3648979733
1520621176110815459,0.5404925389,-0.1166015367,-0.0048985787,0.5148062801,0.2805634447,9.2224095351
1520621176115831459,0.5443114380,-0.0930554592,0.0166476162,0.5677192594,0.3896811022,9.0567636612
1520621176120846459,0.5448715912,-0.0636836995,0.0385148860,0.6242399420,0.4688199681,8.9736241264
1520621176125861459,0.5446778008,-0.0354828723,0.0622684849,0.7757634738,0.5599428392,8.9034939262
1520621176130876459,0.5442343307,-0.0093364039,0.0914179069,0.8527278074,0.6630629213,8.8863742241
1520621176135892459,0.5400191828,0.0168158720,0.1178688708,0.9296921410,0.7218148078,8.9250806973
1520621176140907459,0.5302678079,0.0383082000,0.1426712579,1.0283026935,0.7661753234,8.9717255192
1520621176145924459,0.5182571586,0.0597916292,0.1704538503,1.0848233760,0.7745649043,9.0699494323
1520621176150938459,0.5032258660,0.0783636738,0.1968670830,1.1004567563,0.8009447761,9.1336894586
1520621176155954459,0.4814014172,0.0937402136,0.2186691831,1.1389389231,0.8261237278,9.2134782735
1520621176160970459,0.4563072256,0.1076614646,0.2393840517,1.0980516209,0.7961484017,9.3173362908
1520621176165987459,0.4299506436,0.1169186140,0.2606067762,1.0343155321,0.7721705572,9.3412229247
1520621176171001459,0.4010781291,0.1253064528,0.2796631316,0.8984253805,0.7062284175,9.3182048867
1520621176176017459,0.3674307683,0.1363272649,0.2941490822,0.7865865832,0.6402844046,9.3867621200
1520621176181031459,0.3310192615,0.1508589054,0.3029853800,0.5725295303,0.6031277229,9.4574483628
1520621176186047459,0.2903343613,0.1668567213,0.3077825391,0.3825238317,0.5371897979,9.5337392885
1520621176191063459,0.2508945273,0.1785024723,0.3057803709,0.2442285447,0.4484641775,9.7129799260
1520621176196078459,0.2069212899,0.1852038406,0.2996906228,0.1047306900,0.3297601401,9.9224772450
1520621176201093459,0.1579130668,0.1890061485,0.2873654228,-0.0504005450,0.2410358309,10.0786388743
1520621176206110459,0.1066340589,0.1904961617,0.2677218994,-0.1766701549,0.1607032569,10.2240521013
1520621176211125459,0.0508198873,0.1855841411,0.2442502265,-0.3305988221,0.0587883093,10.3802148882
1520621176216141459,-0.0049990240,0.1815659417,0.2134804838,-0.4183862652,-0.0167507002,10.5682482023
1520621176221156459,-0.0640984553,0.1688107540,0.1804857487,-0.4797172185,-0.0814995064,10.7339327460
1520621176226171459,-0.1234613661,0.1493638218,0.1436527068,-0.5073762759,-0.0862939139,10.9131768086
1520621176231186459,-0.1795621005,0.1261287138,0.1073257892,-0.4917428957,-0.0407277954,11.0129245881
1520621176236203459,-0.2349144820,0.0988145178,0.0709663483,-0.4075631558,0.0000364228,11.0434433634
1520621176241218459,-0.2877535733,0.0694514166,0.0383743210,-0.3426244993,0.0587892459,11.0683211597
1520621176246234459,-0.3340641327,0.0354250807,0.0070873191,-0.1983163737,0.0983496407,10.9901764637
1520621176251249459,-0.3715744463,0.0016790066,-0.0188028771,-0.1069212275,0.1774857905,10.8985624746
1520621176256265459,-0.4035483605,-0.0285784852,-0.0408890217,-0.0588185190,0.2362399249,10.7678768519
1520621176261280459,-0.4297338709,-0.0541788444,-0.0602448726,0.0397920335,0.3129772318,10.6808435469
1520621176266296459,-0.4476178166,-0.0762924519,-0.0747196222,0.1600488048,0.3705266062,10.5355110627
1520621176271311459,-0.4582060476,-0.0934540379,-0.0875468390,0.1768847527,0.4244866140,10.3400543873
1520621176276327459,-0.4594846999,-0.1039181497,-0.0973641887,0.1985309716,0.4664548429,10.1015632588
1520621176281342459,-0.4552192100,-0.1053581015,-0.1030647022,0.2562542218,0.5096194025,9.8836384004
1520621176286359459,-0.4444027046,-0.0942666873,-0.1084112120,0.2851158469,0.5419939461,9.6381135326
1520621176291374459,-0.4275376050,-0.0703519909,-0.1136711074,0.2141643518,0.5467960337,9.4807478758
1520621176296389459,-0.4036225462,-0.0374059880,-0.1172518800,0.2021386747,0.5635849362,9.2879326592
1520621176301404459,-0.3774378747,0.0028320701,-0.1232161891,0.1660616433,0.5743800098,9.1697346035
1520621176306420459,-0.3482359432,0.0451146434,-0.1305232667,0.1335923151,0.5671876961,9.1456526330
1520621176311436459,-0.3205431180,0.0888644752,-0.1418746170,0.1468205599,0.5024330830,9.1304791503
1520621176316451459,-0.2920958749,0.1305639841,-0.1491847406,0.1408077214,0.4712559003,9.1282437905
1520621176321467459,-0.2649163462,0.1635192797,-0.1557475854,0.1023255545,0.3945139103,9.2065568350
1520621176326482459,-0.2359914982,0.1856911232,-0.1613137679,0.0878947420,0.3345580131,9.3752666360
1520621176331497459,-0.2121006440,0.1982285543,-0.1607214222,0.1636565079,0.2961796189,9.5907254118
1520621176336512459,-0.1909896997,0.1976453143,-0.1575185224,0.1323897474,0.2458181563,9.8560476770
1520621176341529459,-0.1716495576,0.1856850053,-0.1497997756,0.1263769088,0.1930564460,10.0002635036
1520621176346545459,-0.1563451610,0.1606013476,-0.1386565034,0.1347948828,0.1750686840,10.1268727993
1520621176351558459,-0.1440613685,0.1308499855,-0.1259199245,0.1588462370,0.1450883002,10.2986652369
1520621176356576459,-0.1322890612,0.0943958538,-0.1129629973,0.1083383931,0.1462913744,10.2805613766
1520621176361591459,-0.1225228400,0.0585120487,-0.0956691558,0.0482100075,0.1247115297,10.2323576315
1520621176366607459,-0.1114984545,0.0232085912,-0.0772910181,-0.0443877064,0.1127273373,10.2065413033
1520621176371622459,-0.1024767599,-0.0062672349,-0.0591352308,-0.1105289307,0.0659660121,10.1514477758
1520621176376638459,-0.0937012207,-0.0334186392,-0.0385262791,-0.1898983997,0.0467859469,10.1696711783
1520621176381652459,-0.0811539917,-0.0561854154,-0.0224902622,-0.2452165145,-0.0083702042,10.0842647478
1520621176386668459,-0.0670861265,-0.0707986616,-0.0042304320,-0.2800909782,0.0228101629,9.9497650930
1520621176391684459,-0.0524999193,-0.0760976040,0.0178872460,-0.3029397647,0.0168162403,9.8000767656
1520621176396700459,-0.0366554498,-0.0770114461,0.0348955646,-0.3137628741,0.0863672278,9.6664677347
1520621176401714459,-0.0185409757,-0.0718053269,0.0519463675,-0.2572421916,0.0587825961,9.4776771713
1520621176406731459,0.0018449145,-0.0581423430,0.0668930722,-0.2115446185,0.0108134201,9.4145233792
1520621176411746459,0.0212226651,-0.0453480789,0.0796706074,-0.1826829934,-0.0467475681,9.3329485093
1520621176416762459,0.0421014813,-0.0360432826,0.0899837521,-0.1923035351,-0.0959115762,9.2842800466
1520621176421778459,0.0602130701,-0.0261444170,0.0957071967,-0.1478085298,-0.1270926926,9.3187416810
1520621176426792459,0.0788200469,-0.0194411146,0.0978881573,-0.1201494724,-0.1930475701,9.3452660893
1520621176431807459,0.0956654699,-0.0139011258,0.0989813091,-0.1081237952,-0.2338192811,9.4277010170
1520621176436824459,0.1099927219,-0.0089303219,0.0946637640,-0.1321751495,-0.2841813057,9.5151450270
1520621176441839459,0.1233093252,-0.0071614996,0.0889709023,-0.1273648786,-0.3225541738,9.6092692859
1520621176446855459,0.1378750719,-0.0120998565,0.0853889433,-0.1634419100,-0.3669195597,9.6642844690
1520621176451869459,0.1466600713,-0.0155740857,0.0783117377,-0.2500267854,-0.3357351652,9.7383118993
1520621176456885459,0.1549397444,-0.0213810449,0.0717587726,-0.3378142284,-0.3249360642,9.8065601937
1520621176461901459,0.1629538719,-0.0347509884,0.0602786479,-0.4015503172,-0.3549096108,9.9094784632
1520621176466917459,0.1659457159,-0.0463789645,0.0504444716,-0.4436401871,-0.3513089114,9.9273167915
1520621176471932459,0.1701948028,-0.0571308379,0.0400735391,-0.5001608697,-0.3309191222,9.9906028239
1520621176476948459,0.1754464426,-0.0708005333,0.0313017842,-0.4688941091,-0.3141335914,9.9751742502
1520621176481962459,0.1774396815,-0.0809872777,0.0271620540,-0.3642707181,-0.1954268379,9.9519594106
1520621176486979459,0.1786826267,-0.0903081766,0.0260063980,-0.2584447593,-0.0467416675,9.9879729741
1520621176491994459,0.1766578520,-0.0999202830,0.0243134946,-0.2680653011,-0.0527366204,9.9810995975
1520621176497010459,0.1751295161,-0.1139022320,0.0223157656,-0.1947086706,-0.0239629635,10.0233568513
1520621176502024459,0.1705859902,-0.1275939780,0.0203258604,-0.0155260813,0.0695560342,10.0343051729
1520621176507041459,0.1665558352,-0.1354673061,0.0218965800,0.0830844711,0.1295053753,9.9356667991
1520621176512057459,0.1635353134,-0.1421841719,0.0269914217,0.1768847527,0.2626026568,9.8823275301
1520621176517072459,0.1592679770,-0.1416161883,0.0318736283,0.2261900290,0.3189584167,9.8074154508
1520621176522088459,0.1535008491,-0.1372702663,0.0403046320,0.2875209823,0.3357416059,9.7126684619
1520621176527103459,0.1467396992,-0.1253516540,0.0498774864,0.3067620657,0.3369392478,9.7101557238
1520621176532118459,0.1409844071,-0.1119713548,0.0578363139,0.3272057169,0.3477299194,9.6890276226
1520621176537135459,0.1369897475,-0.0971319868,0.0652618981,0.2682798989,0.3393405258,9.6733393403
1520621176542149459,0.1314865501,-0.0817053415,0.0708009074,0.2153669196,0.3177601192,9.6634161153
1520621176547165459,0.1209570742,-0.0642307756,0.0725771703,0.1792898882,0.3033732439,9.6812134584
1520621176552180459,0.1131888903,-0.0502575684,0.0764859893,0.1600488048,0.2386211596,9.7128417704
1520621176557196459,0.1041624911,-0.0394988245,0.0836192388,0.1011229868,0.1882618511,9.7948145072
1520621176562212459,0.0908519644,-0.0348484461,0.0861144576,0.0109304084,0.1175195907,9.9282457882
1520621176567227459,0.0770324577,-0.0360310542,0.0904599694,-0.0371723002,0.0119989798,9.9915726659
1520621176572243459,0.0642126498,-0.0401220147,0.0928875621,-0.1009083890,0.0132030842,10.0247318953
1520621176577258459,0.0486173855,-0.0503236636,0.0917565074,-0.1057186598,-0.0407578602,10.0631820862
1520621176582273459,0.0352889112,-0.0579070648,0.0925350812,-0.0383748679,-0.0767373179,10.1136960172
1520621176587290459,0.0212070265,-0.0643215810,0.0919712180,-0.0672364930,-0.0911247551,10.1128288267
1520621176592305459,0.0083763552,-0.0751085582,0.0921833127,-0.0816673055,-0.0443571547,10.1071129634
1520621176597319459,-0.0039524673,-0.0867709489,0.0929288964,-0.0792621701,0.0048074154,10.1535273685
1520621176602335459,-0.0162834930,-0.1013530123,0.0958166164,-0.0095132428,0.0407761958,10.2306770400
1520621176607352459,-0.0273653244,-0.1200081394,0.0965065124,0.0073227052,0.0947362036,10.2339469808
1520621176612368459,-0.0354235213,-0.1337129187,0.0988518756,0.0217535178,0.1678826455,10.2209516070
1520621176617383459,-0.0412201581,-0.1465382876,0.0995764322,0.0121329761,0.1822730799,10.1245732671
1520621176622399459,-0.0470109025,-0.1561635258,0.1022192640,0.0602356846,0.2146461249,10.0380748401
1520621176627413459,-0.0472716652,-0.1649131728,0.1051290430,0.1059332577,0.2590107615,9.9666960012
1520621176632428459,-0.0432578819,-0.1710350432,0.1066981660,0.1359974505,0.2566101391,9.8536777499
1520621176637444459,-0.0402504739,-0.1751045040,0.1034148914,0.1480231276,0.2326263941,9.8408005026
1520621176642461459,-0.0349762799,-0.1780191954,0.1044650429,0.1347948828,0.1642764202,9.8224016073
1520621176647476459,-0.0292048044,-0.1820868447,0.1009060885,0.0951101483,0.1319027195,9.7926037035
1520621176652490459,-0.0211705417,-0.1861572501,0.0986956630,0.0734639294,0.0971293331,9.8079561768
1520621176657508459,-0.0118786753,-0.1858403697,0.0905642404,0.0698562263,0.0371725929,9.7696990084
1520621176662522459,-0.0010820072,-0.1875618619,0.0821439100,0.0578305492,-0.0131903682,9.7791623229
1520621176667538459,0.0074520933,-0.1892813265,0.0726455966,0.0590331169,-0.0083939002,9.8790903205
1520621176672553459,0.0152294392,-0.1924550954,0.0620553843,0.0939075805,-0.0431716886,9.9612970055
1520621176677570459,0.0245066590,-0.2014559641,0.0514179099,0.1047306900,-0.0155923018,10.0518119936
1520621176682584459,0.0322779322,-0.2095854552,0.0416015429,0.1432128568,0.0167814925,10.0316494124
1520621176687600459,0.0400501268,-0.2180107014,0.0334062281,0.1961258361,0.0443576012,9.9834595930
1520621176692616459,0.0480801751,-0.2217744252,0.0255165618,0.2225823258,0.0611435066,9.9308892331
1520621176697631459,0.0568706748,-0.2208764296,0.0179316107,0.2947363886,0.1055060827,9.8232264204
1520621176702646459,0.0671771886,-0.2162000425,0.0141604019,0.3741058577,0.1090973224,9.7527217414
1520621176707663459,0.0794996326,-0.2089069628,0.0128403801,0.4462599204,0.0875071752,9.6637175456
1520621176712677459,0.0898052682,-0.2042276619,0.0079869877,0.5400602021,0.0970929931,9.6232823020
1520621176717693459,0.1023677045,-0.2050925222,0.0063337069,0.6482912962,0.0563137893,9.6757272263
1520621176722709459,0.1189456452,-0.2088652818,0.0030274523,0.7469018487,0.1282545346,9.6979401304
1520621176727724459,0.1327625959,-0.2111865724,0.0013607224,0.8298790209,0.1774128294,9.6366530530
1520621176732738459,0.1491064248,-0.2079916969,0.0075773950,0.8491201043,0.2049915606,9.5330080654
1520621176737756459,0.1657070137,-0.1986681782,0.0103231889,0.8190559115,0.2277775701,9.4798198525
1520621176742772459,0.1810599451,-0.1852766950,0.0171606281,0.6903811662,0.2145970471,9.5171116188
1520621176747787459,0.1974105093,-0.1756648040,0.0209912955,0.6290502128,0.1786276110,9.5665537029
1520621176752801459,0.2142637183,-0.1648820790,0.0229361004,0.6338604837,0.1726315343,9.5688370173
1520621176757818459,0.2288540028,-0.1561450308,0.0267633656,0.6290502128,0.1786276110,9.5607429832
1520621176762834459,0.2444513723,-0.1468284618,0.0319459395,0.6206322388,0.1690351433,9.5492128337
1520621176767849459,0.2580376454,-0.1386811324,0.0382055384,0.6639246765,0.1834214566,9.5173995329
1520621176772865459,0.2706174884,-0.1325789875,0.0463452639,0.6639246765,0.1342566992,9.4535295583
1520621176777880459,0.2804358590,-0.1247310753,0.0550445537,0.5833526397,0.0707085320,9.4404300446
1520621176782894459,0.2920102047,-0.1165794344,0.0594140652,0.5665166917,0.0095536816,9.4557614231
1520621176787910459,0.3015691496,-0.1101681473,0.0605274211,0.5039831707,-0.0563941713,9.4912987183
1520621176792926459,0.3066026494,-0.1046298721,0.0605603253,0.4402470819,-0.0911642796,9.5058987246
1520621176797942459,0.3128918633,-0.0952834382,0.0533150568,0.3933469411,-0.0899614865,9.5772448337
1520621176802956459,0.3159084333,-0.0885534607,0.0433503889,0.3560673420,-0.0599800724,9.5740920251
1520621176807973459,0.3186719443,-0.0832812327,0.0336456182,0.3476493680,-0.0611785572,9.6032287287
1520621176812988459,0.3196692792,-0.0835474567,0.0244429678,0.4005623473,-0.0479921336,9.6375651621
1520621176818004459,0.3164017436,-0.0806195943,0.0187898022,0.4161957276,0.0191585125,9.6257260738
1520621176823019459,0.3143915844,-0.0762306748,0.0117926890,0.4306265402,0.0503350396,9.6673923927
1520621176828035459,0.3098591062,-0.0800073341,0.0069023638,0.4414496496,0.0287496691,9.7126317095
1520621176833050459,0.3010532698,-0.0855376165,0.0033593638,0.4955651967,0.0743127904,9.7492491536
1520621176838065459,0.2904833275,-0.0942716325,-0.0010164607,0.5532884469,0.1486550010,9.8218298810
1520621176843081459,0.2796651599,-0.1030159451,-0.0016041759,0.6206322388,0.1846239688,9.8885436670
1520621176848097459,0.2655709965,-0.1199268602,0.0001868429,0.6927863016,0.2217917023,9.9377773041
1520621176853112459,0.2484622154,-0.1359640748,0.0017195857,0.7637377967,0.2925354613,9.9195855554
1520621176858128459,0.2306026585,-0.1508411456,0.0051564424,0.8034225312,0.3452945492,9.9040399662
1520621176863143459,0.2177781383,-0.1601850403,0.0105200245,0.8515252397,0.3908581389,9.8303122600
1520621176868158459,0.2024490744,-0.1642893687,0.0175515647,0.8238661823,0.4388259100,9.7433739061
1520621176873174459,0.1873770841,-0.1599245081,0.0176129144,0.7456992810,0.4796027723,9.6534477488
1520621176878190459,0.1720608320,-0.1511926203,0.0190608065,0.7360787393,0.5107811726,9.7104560402
1520621176883205459,0.1567484965,-0.1392540457,0.0199920608,0.7096222496,0.5131815139,9.7141976447
1520621176888221459,0.1441962298,-0.1284711851,0.0176627381,0.6735452182,0.5011929195,9.7378033688
1520621176893237459,0.1278735162,-0.1171012048,0.0131804952,0.6759503536,0.5167815577,9.7842505155
1520621176898252459,0.1113056588,-0.1028247620,0.0114264088,0.6555067025,0.4987960436,9.8541956788
1520621176903268459,0.0964936001,-0.0885367036,0.0056108670,0.6062014263,0.5107912879,9.9092846585
1520621176908282459,0.0784132022,-0.0762939873,0.0014091063,0.6182271034,0.5083920704,9.8661706204
1520621176913299459,0.0630953781,-0.0643372020,-0.0044232868,0.6518989994,0.4975971841,9.8356376600
1520621176918314459,0.0442567359,-0.0523730539,-0.0134956965,0.6759503536,0.5635480342,9.8516092606
1520621176923330459,0.0299463497,-0.0392525220,-0.0185094265,0.7132299527,0.5539520074,9.7966349927
1520621176928346459,0.0148786836,-0.0269991547,-0.0262338845,0.7312684684,0.5839291130,9.7580794329
1520621176933360459,0.0003149325,-0.0147499610,-0.0323360005,0.7469018487,0.5299665764,9.7498448797
1520621176938377459,-0.0134969883,-0.0033717119,-0.0395283696,0.7589275258,0.5467536057,9.7253064354
1520621176943392459,-0.0247979907,0.0056728035,-0.0453904611,0.7829788801,0.5011843964,9.7111710417
1520621176948407459,-0.0376077544,0.0138418460,-0.0509858757,0.8058276666,0.4544161404,9.7609664399
1520621176953423459,-0.0509177831,0.0240518403,-0.0571058870,0.7601300935,0.4496231378,9.7439837501
1520621176958438459,-0.0619694665,0.0316395314,-0.0629795606,0.7781686092,0.4292363457,9.7438280530
1520621176963454459,-0.0742757113,0.0395130158,-0.0669548563,0.7889917186,0.4460234687,9.7518413444
1520621176968469459,-0.0855755298,0.0479682062,-0.0703864809,0.8166507760,0.4472204549,9.7236795039
1520621176973486459,-0.0948655300,0.0558406868,-0.0735557396,0.7925994218,0.4316335026,9.7506581174
1520621176978500459,-0.1041585685,0.0605035669,-0.0751261769,0.7853840155,0.4544177326,9.7332739709
1520621176983515459,-0.1111913721,0.0631232709,-0.0750931009,0.7793711769,0.4496216392,9.7554179087
1520621176988531459,-0.1159667124,0.0616601070,-0.0734720732,0.7986122603,0.4592132641,9.7621941368
1520621176993547459,-0.1197363281,0.0610736759,-0.0726578808,0.7793711769,0.4843967115,9.7611947177
1520621176998563459,-0.1232524888,0.0622363787,-0.0721013626,0.7649403644,0.5035840822,9.7183171426
1520621177003578459,-0.1235042738,0.0610671000,-0.0707570587,0.8046250989,0.4987844297,9.7330434245
1520621177008594459,-0.1230038363,0.0578547828,-0.0680769871,0.7829788801,0.4927904135,9.7506921215
1520621177013609459,-0.1230000570,0.0590130366,-0.0653626358,0.7709532029,0.5119775969,9.7484661747
1520621177018624459,-0.1219966298,0.0546288223,-0.0602574770,0.7721557707,0.4939903968,9.7705527449
1520621177023641459,-0.1172274563,0.0487949897,-0.0573348016,0.7084196819,0.4784065353,9.7432968594
1520621177028656459,-0.1127112087,0.0420883619,-0.0549594205,0.7168376559,0.5023886882,9.7269215219
1520621177033671459,-0.1079392674,0.0368307424,-0.0495973858,0.7156350881,0.5071853435,9.6525513365
1520621177038687459,-0.1029165095,0.0318675197,-0.0453157784,0.6867734630,0.4939970467,9.6691151359
1520621177043703459,-0.0983968315,0.0271983983,-0.0421131981,0.6470887285,0.5107881034,9.6392692892
1520621177048718459,-0.0921187634,0.0228249927,-0.0402643911,0.6350630514,0.4832088103,9.6638182577
1520621177053733459,-0.0818197807,0.0190381168,-0.0392302433,0.5821500720,0.4916069143,9.6561900871
1520621177058749459,-0.0740295170,0.0190411689,-0.0392447117,0.5484781760,0.5155923452,9.6506837221
1520621177063765459,-0.0664948567,0.0184730085,-0.0435918939,0.5075908738,0.5515697424,9.6336144545
1520621177068780459,-0.0554336153,0.0219761401,-0.0443973904,0.5124011447,0.5119977338,9.6231469269
1520621177073799459,-0.0443687593,0.0307358482,-0.0494916057,0.4847420873,0.5012076241,9.5815894849
1520621177078811459,-0.0345647530,0.0362898341,-0.0546079413,0.4991728998,0.5000073598,9.6000444968
1520621177083825459,-0.0247585512,0.0418365358,-0.0570188180,0.4546778944,0.4748288763,9.6202585873
1520621177088843459,-0.0159573684,0.0476749566,-0.0596961505,0.4005623473,0.4364605975,9.6161741579
1520621177093858459,-0.0066615032,0.0491493623,-0.0648426759,0.4077777536,0.4112780866,9.5719670134
1520621177098888459,0.0031443457,0.0541118380,-0.0667169069,0.3849289671,0.3405305812,9.5745826884
1520621177103889459,0.0119427137,0.0582034085,-0.0699486698,0.4029674828,0.2901652785,9.6116448313
1520621177108904459,0.0197272183,0.0555912842,-0.0726886049,0.4161957276,0.3153461971,9.6045186558
1520621177113920459,0.0292683448,0.0488902677,-0.0716752878,0.4703112747,0.3141428420,9.6005066658
1520621177118935459,0.0360427614,0.0392692238,-0.0687852463,0.4943626290,0.3309289347,9.6409312323
1520621177123952459,0.0455778623,0.0287831222,-0.0688830129,0.5220216864,0.3692992741,9.6615431883
1520621177128967459,0.0526051145,0.0191570778,-0.0640996168,0.6001885877,0.4376441903,9.6688507150
1520621177133981459,0.0593792606,0.0069026467,-0.0571713946,0.6687349473,0.5491589111,9.7308305518
1520621177138997459,0.0671613267,-0.0044823360,-0.0483445488,0.6711400828,0.5983234811,9.7075163197
1520621177144013459,0.0764538673,-0.0147048319,-0.0381588815,0.6386707545,0.6211096780,9.6671351003
1520621177149028459,0.0857523944,-0.0193859229,-0.0298247969,0.6506964316,0.6702734987,9.6913751299
1520621177154043459,0.0910325160,-0.0223202819,-0.0214699061,0.6122142648,0.6918610235,9.7103229469
1520621177159059459,0.0990795239,-0.0220425008,-0.0152600626,0.5725295303,0.6498941994,9.6735615341
1520621177164074459,0.1051124953,-0.0223388067,-0.0125680281,0.5027806029,0.5947391722,9.6789427928
1520621177169091459,0.1131560337,-0.0223422120,-0.0101480501,0.4522727590,0.5707602975,9.7108356787
1520621177174106459,0.1191928392,-0.0173826699,-0.0114741885,0.4378419465,0.5072069790,9.7214974099
1520621177179121459,0.1224654949,-0.0103757780,-0.0160261821,0.4017649151,0.4844261207,9.7358165065
1520621177184137459,0.1234729405,-0.0062850743,-0.0200551143,0.3765109931,0.4616444195,9.7697867048
1520621177189152459,0.1237254822,-0.0013132281,-0.0267814359,0.3741058577,0.4820299941,9.8139517064
1520621177194169459,0.1244841851,0.0062812757,-0.0334886833,0.3632827482,0.4988188029,9.8605264393
1520621177199182459,0.1209733602,0.0159145259,-0.0404429806,0.3921443734,0.4952191338,9.8672218897
1520621177204199459,0.1199760057,0.0252544625,-0.0463219847,0.3789161285,0.5287960959,9.8498857445
1520621177209214459,0.1154605108,0.0343001792,-0.0516555860,0.4198034308,0.5935464944,9.8250196053
1520621177214230459,0.1122056421,0.0450888680,-0.0548138152,0.4546778944,0.6043360420,9.8095617632
1520621177219246459,0.1109571142,0.0520867034,-0.0566519488,0.4715138424,0.6079321521,9.8593665744
1520621177224261459,0.1074461089,0.0599643622,-0.0609141257,0.4462599204,0.5827521700,9.8642855125
1520621177229278459,0.1021736792,0.0658001832,-0.0646475053,0.4606907330,0.5839501865,9.8746031781
1520621177234292459,0.0966461674,0.0690141734,-0.0686709719,0.4703112747,0.6115296670,9.9256169768
1520621177239308459,0.0913688096,0.0710612671,-0.0721627058,0.4751215456,0.6247198370,9.9546108927
1520621177244323459,0.0873468875,0.0713561754,-0.0740468364,0.5220216864,0.6630886778,9.9947920151
1520621177249338459,0.0808066964,0.0672771459,-0.0751480084,0.5532884469,0.7290389660,10.0130176732
1520621177254356459,0.0742671599,0.0617324526,-0.0730137450,0.5953783168,0.7734038835,10.0253483142
1520621177259370459,0.0682351882,0.0582203636,-0.0681593945,0.6170245357,0.7746013381,10.0495414769
1520621177264386459,0.0606926518,0.0526679921,-0.0633178053,0.6206322388,0.8081769889,10.0378521807
1520621177269401459,0.0536487534,0.0442019723,-0.0584993804,0.5977834523,0.8057804876,10.0508604989
1520621177274417459,0.0466078071,0.0395312357,-0.0563575144,0.5544910146,0.7590173829,10.0153010226
1520621177279431459,0.0385664602,0.0380638782,-0.0536482357,0.4919574935,0.7302428830,9.9996677343
1520621177284447459,0.0300179484,0.0363187794,-0.0560806187,0.4378419465,0.6906754638,10.0002330500
1520621177289464459,0.0187083603,0.0366108324,-0.0579512143,0.4041700505,0.6762884012,9.9587376413
1520621177294479459,0.0101674187,0.0415726768,-0.0622262876,0.4017649151,0.6379160949,9.9692577659
1520621177299492459,0.0018793168,0.0479929991,-0.0670318040,0.4246137016,0.6031392431,9.9969607356
1520621177304510459,-0.0061609598,0.0526687549,-0.0732038551,0.3921443734,0.6151331762,9.9949407908
1520621177309526459,-0.0157105270,0.0555926990,-0.0783042608,0.4077777536,0.5911491501,9.9948120118
1520621177314541459,-0.0240056230,0.0573530542,-0.0839569842,0.4161957276,0.6163304434,9.9935433764
1520621177319557459,-0.0287841662,0.0567786126,-0.0877402052,0.4871472227,0.6091300749,9.9731033468
1520621177324572459,-0.0350689186,0.0573691183,-0.0915117335,0.4919574935,0.6163245428,9.9637523589
1520621177329587459,-0.0421106019,0.0562132067,-0.0961068378,0.4967677644,0.6858743127,9.9740970126
1520621177334602459,-0.0494036311,0.0538865596,-0.0988165465,0.4763241133,0.6834776241,9.9429204505
1520621177339619459,-0.0572032175,0.0486458703,-0.1015475525,0.5316422281,0.6810750349,9.9412222126
1520621177344634459,-0.0599724286,0.0463195385,-0.1037245704,0.5424653375,0.7386329323,9.9259528674
1520621177349649459,-0.0652577527,0.0413683046,-0.1053758371,0.5448704729,0.7302387620,9.9073433394
1520621177354665459,-0.0695359486,0.0367037500,-0.1051329262,0.5568961500,0.7026575957,9.9165503353
1520621177359680459,-0.0763236554,0.0352463543,-0.1059430778,0.5292370926,0.7050580307,9.8656828789
1520621177364696459,-0.0785897867,0.0326259212,-0.1070410687,0.5244268218,0.6439022437,9.8378978806
1520621177369712459,-0.0843685621,0.0326200146,-0.1056776046,0.5316422281,0.5995334861,9.7844122939
1520621177374727459,-0.0866316158,0.0314528619,-0.1054117505,0.5111985769,0.5779505507,9.7497680093
1520621177379743459,-0.0906542907,0.0294086812,-0.1043376609,0.5184139832,0.5647594441,9.7764399527
1520621177384757459,-0.0893972281,0.0285291925,-0.1021822966,0.5400602021,0.5515672135,9.7518371013
1520621177389774459,-0.0893993412,0.0264873155,-0.1013862205,0.5821500720,0.5671527610,9.7258450560
1520621177394790459,-0.0909040645,0.0250130482,-0.0951719800,0.6098091294,0.5431677983,9.7569771132
1520621177399808459,-0.0883869049,0.0250001926,-0.0900362752,0.6025937231,0.5455666411,9.7361264137
1520621177404821459,-0.0868741056,0.0252768708,-0.0843553887,0.5352499312,0.5191907968,9.6856732883
1520621177409836459,-0.0863698849,0.0246862859,-0.0813847634,0.5136037124,0.5155950614,9.6556717446
1520621177414852459,-0.0831051563,0.0229385302,-0.0811336235,0.5003754675,0.4520416492,9.6535381873
1520621177419868459,-0.0788283247,0.0264368183,-0.0811148807,0.4883497904,0.3992804072,9.6420852492
1520621177424883459,-0.0765701048,0.0261565179,-0.0849089469,0.5063883061,0.3788936151,9.6291459686
1520621177429897459,-0.0705455780,0.0206196611,-0.0838802033,0.5268319572,0.4052731121,9.6521641363
1520621177434912459,-0.0665321867,0.0156698847,-0.0847371010,0.5460730406,0.3932802094,9.6194485181
1520621177439929459,-0.0584941447,0.0127577331,-0.0842331752,0.5929731814,0.4172593651,9.6073471945
1520621177444945459,-0.0496968431,0.0121696689,-0.0810074059,0.6194296711,0.4664220619,9.6407439151
1520621177449959459,-0.0416557707,0.0095401607,-0.0772547063,0.5989860200,0.4904064626,9.6153523472
1520621177454975459,-0.0331034756,0.0139069917,-0.0745317696,0.6374681868,0.4880051846,9.6533308746
1520621177459992459,-0.0243047196,0.0153629897,-0.0729137142,0.6398733222,0.5095895249,9.6277192494
1520621177465007459,-0.0157542750,0.0173943740,-0.0685852868,0.6074039940,0.5395705644,9.6198710447
1520621177470022459,-0.0079589500,0.0217711078,-0.0696485925,0.6422784577,0.5539575333,9.5718696639
1520621177475038459,0.0026050960,0.0258415145,-0.0647672456,0.6591144056,0.5527570816,9.6030848492
1520621177480053459,0.0144187363,0.0275937207,-0.0645052972,0.6987991402,0.5683428164,9.5806026458
1520621177485069459,0.0237150798,0.0273103496,-0.0661480644,0.7192427913,0.5959214539,9.6129167958
1520621177490085459,0.0307515724,0.0249711037,-0.0621207289,0.7000017079,0.5683427227,9.6352117066
1520621177495100459,0.0413063428,0.0249745104,-0.0618697854,0.6963940047,0.5551524590,9.6608268515
1520621177500115459,0.0500966112,0.0214827988,-0.0624538895,0.6615195411,0.5371680688,9.6774538536
1520621177505132459,0.0558756453,0.0197316571,-0.0605841414,0.6543041348,0.5383677712,9.6903064981
1520621177510146459,0.0641634493,0.0168247031,-0.0619745036,0.6675323796,0.5539555664,9.7354861553
1520621177515163459,0.0712045250,0.0206169155,-0.0624997635,0.6302527805,0.5683481550,9.7462942755
1520621177520178459,0.0772417225,0.0244043636,-0.0613998812,0.6062014263,0.5695491686,9.7139871766
1520621177525193459,0.0857920378,0.0273142720,-0.0586880600,0.6591144056,0.5647484859,9.7436925743
1520621177530209459,0.0905689580,0.0284794955,-0.0578763977,0.6759503536,0.5419635066,9.7644695121
1520621177535224459,0.0948407244,0.0261406234,-0.0543850200,0.6579118379,0.5815365455,9.7425257646
1520621177540239459,0.0971054875,0.0261313115,-0.0506015780,0.6470887285,0.5563554395,9.8088978717
1520621177545255459,0.0986086583,0.0217567637,-0.0490144492,0.6747477859,0.5587515662,9.8295449079
1520621177550270459,0.0986074194,0.0182484945,-0.0447123919,0.6795580568,0.5695434553,9.7876503812
1520621177555287459,0.0966006316,0.0191138477,-0.0417259840,0.6482912962,0.5755415926,9.8530289274
1520621177560302459,0.0950911254,0.0188262430,-0.0433486821,0.6398733222,0.6115164609,9.8600486464
1520621177565317459,0.0955938524,0.0179479158,-0.0417330095,0.6807606245,0.6211063999,9.8329120088
1520621177570333459,0.0925760240,0.0167833815,-0.0425479388,0.6819631922,0.6306994296,9.8503231084
1520621177575348459,0.0893039957,0.0144575812,-0.0449945692,0.6639246765,0.5839343580,9.8296256973
1520621177580364459,0.0880465802,0.0147528441,-0.0466132878,0.6518989994,0.5899309967,9.8018454462
1520621177585379459,0.0850277012,0.0147625891,-0.0506658756,0.6879760307,0.5527548338,9.8073412638
1520621177590396459,0.0817547946,0.0124397025,-0.0541946895,0.6783554890,0.5623487065,9.7865069584
1520621177595411459,0.0794898983,0.0118640601,-0.0571709400,0.6374681868,0.5851355589,9.8147741678
1520621177600425459,0.0757162406,0.0104129450,-0.0598805136,0.6482912962,0.5743424522,9.8204900661
1520621177605441459,0.0757110539,0.0083812660,-0.0628720800,0.6134168325,0.5707477471,9.8394273240
1520621177610458459,0.0734497212,0.0104280843,-0.0658283228,0.6627221088,0.5767396091,9.8366172821
1520621177615473459,0.0724440437,0.0107219888,-0.0669064164,0.6831657599,0.6330976168,9.8444983448
1520621177620488459,0.0699312319,0.0110131172,-0.0671700719,0.6470887285,0.6510875330,9.8715612674
1520621177625503459,0.0674190355,0.0115949017,-0.0671609585,0.6338604837,0.6666773887,9.8507562304
1520621177630518459,0.0651609097,0.0142164763,-0.0671367503,0.6434810254,0.6762697628,9.8831932660
1520621177635534459,0.0601371756,0.0153778600,-0.0663068858,0.6254425097,0.6606823422,9.8740868916
1520621177640550459,0.0596369106,0.0174188117,-0.0668314825,0.6001885877,0.6810696963,9.8510699399
1520621177645566459,0.0578733809,0.0162620540,-0.0703542044,0.6086065617,0.6678784960,9.8254337003
1520621177650581459,0.0546099696,0.0180054391,-0.0689820691,0.6158219680,0.6738736362,9.8114118958
1520621177655596459,0.0520963697,0.0191772769,-0.0716739684,0.6302527805,0.6894613377,9.7705811953
1520621177660613459,0.0498384203,0.0220909645,-0.0719180830,0.6254425097,0.6774703081,9.8020175957
1520621177665628459,0.0450659419,0.0235452881,-0.0716275539,0.6591144056,0.6690737027,9.7807794483
1520621177670644459,0.0415482445,0.0247130900,-0.0729648569,0.6049988586,0.6283071430,9.7918052290
1520621177675659459,0.0380317780,0.0264622040,-0.0737566220,0.6350630514,0.6271056611,9.7915137719
1520621177680674459,0.0327588150,0.0299582077,-0.0742612355,0.6242399420,0.5935305722,9.8183811699
1520621177685690459,0.0279825103,0.0290836403,-0.0748001289,0.6170245357,0.5731457469,9.8533355976
1520621177690705459,0.0214465845,0.0273320449,-0.0745307867,0.6651272442,0.5731420005,9.8273002283
1520621177695721459,0.0136608058,0.0296556984,-0.0728752582,0.6326579159,0.5575557038,9.8415771937
1520621177700736459,0.0073825142,0.0325663538,-0.0725708134,0.6302527805,0.5659498741,9.8601867217
1520621177705753459,0.0008489211,0.0328559069,-0.0728270014,0.6350630514,0.5491615336,9.8520212646
1520621177710768459,-0.0066888559,0.0337271068,-0.0728063304,0.6146194003,0.5959296023,9.8417153507
1520621177715783459,-0.0144813150,0.0337313390,-0.0754973209,0.6158219680,0.5863363852,9.8312537048
1520621177720798459,-0.0192555066,0.0348986486,-0.0768322903,0.6362656191,0.5827373718,9.8020046280
1520621177725815459,-0.0250352425,0.0369448170,-0.0800525449,0.6591144056,0.6079175411,9.7947848121
1520621177730830459,-0.0305627151,0.0384024874,-0.0811133451,0.7024068433,0.6474858033,9.8303513044
1520621177735845459,-0.0343363336,0.0351950523,-0.0808602523,0.7288633330,0.6882545172,9.7963518610
1520621177740860459,-0.0396145812,0.0328546242,-0.0781627768,0.7288633330,0.7002459214,9.7916915918
1520621177745876459,-0.0423761045,0.0319662759,-0.0732944860,0.7360787393,0.7062410616,9.8136962499
1520621177750891459,-0.0436268474,0.0316540030,-0.0657190904,0.7444967133,0.7757905505,9.7473042874
1520621177755908459,-0.0461306150,0.0316224243,-0.0543514955,0.6951914370,0.7614047055,9.8000947047
1520621177760923459,-0.0481327963,0.0310090020,-0.0432598262,0.6675323796,0.7302292087,9.8120157634
1520621177765939459,-0.0521448782,0.0330274507,-0.0359320578,0.6350630514,0.7482188438,9.8076656840
1520621177770954459,-0.0518852760,0.0347561887,-0.0286144468,0.5917706137,0.7482222156,9.7848441869
1520621177775970459,-0.0526316139,0.0370724009,-0.0231843441,0.5773398012,0.7242405311,9.7884944663
1520621177780984459,-0.0496090849,0.0390994339,-0.0180340111,0.5725295303,0.7338340291,9.7850454999
1520621177786001459,-0.0478450730,0.0399618933,-0.0134313287,0.5677192594,0.7062541740,9.7351470249
1520621177791016459,-0.0470865191,0.0411175288,-0.0096361940,0.5641115563,0.7278389826,9.7549175392
1520621177796032459,-0.0445716451,0.0402341617,-0.0058598879,0.5520858792,0.7050562511,9.7480839435
1520621177801047459,-0.0408010219,0.0399391550,-0.0039752906,0.5136037124,0.6762798781,9.7298922662
1520621177806063459,-0.0385419708,0.0384853038,-0.0048022442,0.5436679052,0.6379050431,9.6877998763
1520621177811078459,-0.0327623173,0.0384882967,-0.0050835248,0.5208191186,0.6367076822,9.6426998275
1520621177816094459,-0.0289929211,0.0390754563,-0.0061682630,0.5196165509,0.6391060567,9.6183041708
1520621177821110459,-0.0237128740,0.0411172155,-0.0061625026,0.5484781760,0.6175192812,9.6017742822
1520621177826126459,-0.0179315935,0.0419929052,-0.0058960221,0.5460730406,0.6151211877,9.5680978563
1520621177831139459,-0.0121497916,0.0408179766,-0.0015869147,0.5809475043,0.6522918247,9.6339643655
1520621177836157459,-0.0063634577,0.0431403909,0.0024783237,0.5208191186,0.6606904906,9.6171092737
1520621177841171459,0.0004257428,0.0448855289,0.0046434279,0.5003754675,0.6726834871,9.5894051113
1520621177846187459,0.0064549702,0.0402111708,0.0100075751,0.4594881653,0.6738858120,9.6049097853
1520621177851202459,0.0089720396,0.0393205194,0.0164893401,0.5015780352,0.6942679211,9.6381824043
1520621177856218459,0.0150038662,0.0378572185,0.0197135741,0.4967677644,0.6654889255,9.6661487435
1520621177861233459,0.0202849208,0.0390175399,0.0224181242,0.4895523581,0.6618920662,9.6092774281
1520621177866249459,0.0268183376,0.0384358738,0.0229426350,0.4739189778,0.6546984413,9.5664372836
1520621177871264459,0.0331036623,0.0384288656,0.0264480636,0.4606907330,0.6523011907,9.5340283472
1520621177876280459,0.0381312188,0.0381328943,0.0288714191,0.4222085662,0.6547024686,9.5657784571
1520621177881295459,0.0426522220,0.0363863593,0.0288496795,0.4390445142,0.6690908425,9.5435198191
1520621177886311459,0.0516999482,0.0372647857,0.0285690009,0.4450573527,0.6834800593,9.5480958375
1520621177891327459,0.0597444589,0.0395997410,0.0283013045,0.4270188370,0.7494341874,9.5819092744
1520621177896342459,0.0657780065,0.0413504111,0.0283034417,0.4065751859,0.7422409371,9.6169795950
1520621177901357459,0.0740750862,0.0425104570,0.0315434829,0.4354368110,0.7734163403,9.6166682708
1520621177906373459,0.0803584312,0.0410465262,0.0350377960,0.4053726182,0.8225834392,9.6633987125
1520621177911388459,0.0868921576,0.0413419274,0.0344867925,0.3909418056,0.8189871418,9.6647048252
1520621177916404459,0.0931696142,0.0381413443,0.0336390328,0.3632827482,0.8045996109,9.6707987933
1520621177921419459,0.0956791290,0.0363976638,0.0322682976,0.3849289671,0.8033987846,9.7170750298
1520621177926435459,0.0979398971,0.0366943051,0.0306430448,0.3596750451,0.7806170834,9.7219916292
1520621177931450459,0.1006985154,0.0349580074,0.0265663839,0.3356236908,0.7854155183,9.7373289244
1520621177936467459,0.1006960102,0.0340882244,0.0249364392,0.3043569303,0.7590368641,9.7086053825
1520621177941482459,0.1019469648,0.0314728118,0.0224791848,0.2995466595,0.7650329409,9.7376999549
1520621177946498459,0.1006845352,0.0285650301,0.0200243745,0.2851158469,0.7770254691,9.7564230254
1520621177951512459,0.0976700940,0.0297308436,0.0194977757,0.2839132792,0.7842204053,9.7878056012
1520621177956529459,0.0951592188,0.0317717360,0.0187063669,0.2875209823,0.7758261413,9.7761572319
1520621177961545459,0.0911410760,0.0332248981,0.0195365876,0.2478362478,0.7866214959,9.7509658077
1520621177966560459,0.0886352111,0.0370053565,0.0220050680,0.2370131384,0.7830249176,9.7882632678
1520621177971575459,0.0861302283,0.0422463797,0.0231319343,0.2093540810,0.7686373867,9.8222486908
1520621177976591459,0.0790955311,0.0428234783,0.0242316323,0.1961258361,0.7170753787,9.8142927203
1520621177981606459,0.0685397493,0.0422380310,0.0237056967,0.2297977321,0.7182718967,9.7570187557
1520621177986622459,0.0617538459,0.0419454450,0.0231749834,0.2610644926,0.6978840743,9.7997336293
1520621177991638459,0.0547080226,0.0361200967,0.0212497687,0.2730901698,0.7002814186,9.7914792323
1520621177996654459,0.0454009451,0.0288289270,0.0222936439,0.2851158469,0.7290598521,9.8122527088
1520621178001668459,0.0358413808,0.0206635052,0.0233313165,0.2899261178,0.7338560392,9.8133633552
1520621178006684459,0.0290496203,0.0139509900,0.0262687920,0.3127749043,0.7374516809,9.7550302534
1520621178011700459,0.0199957312,0.0072390456,0.0286693761,0.2706850343,0.7398532399,9.7961126301
1520621178016715459,0.0104396874,0.0019889259,0.0291881879,0.3272057169,0.7482428208,9.7827707235
1520621178021731459,0.0016371873,-0.0038451243,0.0302422450,0.2899261178,0.7602371285,9.7749868792
1520621178026746459,-0.0051517152,-0.0091036305,0.0342730195,0.2730901698,0.7134719632,9.7926285136
1520621178031760459,-0.0136979023,-0.0117345378,0.0361627016,0.2610644926,0.6858926701,9.7741781557
1520621178036778459,-0.0217402999,-0.0120276160,0.0356343218,0.2454311124,0.6990844323,9.7580474433
1520621178041793459,-0.0270221033,-0.0140635478,0.0334641943,0.2346080030,0.6763016072,9.7849043172
1520621178046807459,-0.0355634055,-0.0126128864,0.0345733619,0.2466336801,0.6870929344,9.8091817656
1520621178051823459,-0.0393351736,-0.0134848747,0.0332209640,0.2273925967,0.7242677861,9.7884142058
1520621178056839459,-0.0431028487,-0.0108580633,0.0310836054,0.2658747635,0.7374553336,9.8263775318
1520621178061855459,-0.0456102112,-0.0088288258,0.0346209309,0.3199903106,0.7338536977,9.8188814485
1520621178066870459,-0.0473643359,-0.0067971076,0.0373452185,0.3536622065,0.7842149730,9.8673146408
1520621178071885459,-0.0498762696,-0.0065088929,0.0381637465,0.3416365294,0.7902116117,9.8558044051
1520621178076902459,-0.0478631151,-0.0073953706,0.0430231696,0.3512570711,0.7350504029,9.8394945389
1520621178081916459,-0.0450961072,-0.0079887115,0.0473423238,0.3380288263,0.6942806588,9.8687166509
1520621178086933459,-0.0468561634,-0.0074008042,0.0451856699,0.3392313940,0.6810900205,9.8826635360
1520621178091949459,-0.0471069290,-0.0050610853,0.0419573705,0.2995466595,0.6726991283,9.8481936697
1520621178096964459,-0.0455953489,-0.0009752837,0.0398213262,0.3103697689,0.6810922683,9.8806201695
1520621178101978459,-0.0455856263,0.0060172165,0.0401452262,0.3115723366,0.6451179620,9.8515899458
1520621178106995459,-0.0425658102,0.0115656304,0.0361236757,0.3223954460,0.6247317318,9.8793959339
1520621178112011459,-0.0405518481,0.0171158359,0.0312923544,0.3753084254,0.6331215938,9.8544677030
1520621178117026459,-0.0405475748,0.0223702270,0.0278152733,0.3933469411,0.6235270655,9.8357071786
1520621178122042459,-0.0360220357,0.0255845133,0.0251258672,0.3837263994,0.6007441467,9.8323366047
1520621178127057459,-0.0309953966,0.0270477756,0.0235043728,0.3993597796,0.5539764526,9.8264193234
1520621178132071459,-0.0299897112,0.0296808282,0.0197348711,0.4378419465,0.5467786129,9.8179167699
1520621178137087459,-0.0307407026,0.0323051789,0.0189446414,0.4053726182,0.5144043503,9.8601015610
1520621178142103459,-0.0279701624,0.0390175756,0.0154735418,0.4017649151,0.4964175250,9.8462084888
1520621178147119459,-0.0279699821,0.0407731671,0.0127814213,0.3981572119,0.4940195251,9.8044087603
1520621178152133459,-0.0284672088,0.0460237191,0.0106580031,0.3704981545,0.4988182410,9.8162947388
1520621178157150459,-0.0289641688,0.0524441798,0.0069202019,0.3753084254,0.4952204451,9.8778450561
1520621178162166459,-0.0274533767,0.0574106909,0.0023559138,0.3789161285,0.4844279003,9.8522532980
1520621178167181459,-0.0274463317,0.0647047737,-0.0011056057,0.4306265402,0.5108049622,9.8749671342
1520621178172196459,-0.0266837201,0.0725790071,-0.0034818957,0.4462599204,0.5359856935,9.9038440112
1520621178177212459,-0.0256735498,0.0775387654,-0.0056103373,0.4775266810,0.5743557519,9.9046644048
1520621178182227459,-0.0261753595,0.0766578590,-0.0031811600,0.4811343841,0.6019357007,9.8976295311
1520621178187242459,-0.0274371815,0.0711137764,-0.0005156061,0.4943626290,0.6235191980,9.8684261286
1520621178192258459,-0.0244252533,0.0661512229,0.0032286434,0.4618933007,0.6487036757,9.9140412232
1520621178197274459,-0.0239244238,0.0617668117,0.0083347357,0.4462599204,0.6714885614,9.8897661484
1520621178202289459,-0.0251839171,0.0568003991,0.0128985570,0.4017649151,0.7266524863,9.8448218317
1520621178207305459,-0.0226693057,0.0562106019,0.0158654485,0.3897392379,0.7350474058,9.8205256738
1520621178212321459,-0.0214086795,0.0579535739,0.0180408206,0.3680930191,0.7674258831,9.7742190345
1520621178217337459,-0.0204009359,0.0585309093,0.0202077670,0.3079646335,0.7638331449,9.8119964019
1520621178222352459,-0.0178894883,0.0570735143,0.0207330761,0.2863184146,0.7506442861,9.8377871226
1520621178227368459,-0.0151214690,0.0570622140,0.0253272224,0.2742927375,0.7698314695,9.8262640242
1520621178232382459,-0.0128580663,0.0573501141,0.0269485204,0.2670773312,0.7938148399,9.7833115415
1520621178237398459,-0.0118540628,0.0550128758,0.0293637819,0.2297977321,0.8118048497,9.7906297219
1520621178242414459,-0.0068290115,0.0538471215,0.0301571927,0.2310002998,0.8273935815,9.7940892473
1520621178247429459,-0.0048199851,0.0526816426,0.0304151125,0.2201771904,0.8345892670,9.7767554174
1520621178252444459,-0.0035639771,0.0515129546,0.0317566160,0.2490388155,0.8549724064,9.8252646634
1520621178257460459,-0.0013001824,0.0506287607,0.0358039347,0.2394182738,0.8321894876,9.7974890664
1520621178262475459,0.0004594778,0.0497494688,0.0379583655,0.2021386747,0.8717640250,9.8547583887
1520621178267492459,0.0022178169,0.0474110691,0.0409133187,0.1949232684,0.8729637274,9.8618003134
1520621178272508459,0.0007102827,0.0456534300,0.0441493312,0.2165694873,0.8789577437,9.8453137603
1520621178277522459,-0.0023078124,0.0433189870,0.0449487849,0.2141643518,0.8669665268,9.8569703034
1520621178282537459,-0.0028139737,0.0406963294,0.0449297106,0.2237848935,0.8657666371,9.8440942488
1520621178287554459,-0.0028180195,0.0383681669,0.0438297423,0.1612513725,0.8825594733,9.8760644277
1520621178292569459,-0.0038248850,0.0377879177,0.0427449795,0.1600488048,0.8789621457,9.8702689210
1520621178297583459,-0.0070964311,0.0351678192,0.0413783096,0.1528333985,0.8945515332,9.8377839192
1520621178302599459,-0.0098590913,0.0360394329,0.0419312046,0.1215666379,0.8405926493,9.8125737040
1520621178307616459,-0.0111169026,0.0360433112,0.0403102629,0.1323897474,0.8333969638,9.7880703515
1520621178312631459,-0.0133839592,0.0322551547,0.0400150174,0.1179589348,0.8154109813,9.7754447687
1520621178317647459,-0.0174050933,0.0316693535,0.0405591306,0.1408077214,0.7794349891,9.8054731956
1520621178322663459,-0.0214326059,0.0267142412,0.0405288057,0.1167563671,0.7110858582,9.7395317437
1520621178327677459,-0.0234494181,0.0226369839,0.0394192327,0.0674510909,0.7218819620,9.7086232402
1520621178332692459,-0.0249607277,0.0211845696,0.0375170963,0.0710587940,0.6691195024,9.7225853034
1520621178337709459,-0.0274812824,0.0159401204,0.0369406562,0.0638433877,0.6535312389,9.6982657121
1520621178342724459,-0.0325102934,0.0141920294,0.0361250145,0.0397920335,0.6583296738,9.6891979843
1520621178347740459,-0.0352805160,0.0112836570,0.0336730045,-0.0131209459,0.6283552842,9.6525536337
1520621178352755459,-0.0408131792,0.0092461699,0.0320444355,0.0109304084,0.5827860749,9.6697961268
1520621178357771459,-0.0408169977,0.0098442360,0.0263674178,-0.0071081073,0.5971771649,9.6560119431
1520621178362786459,-0.0423294089,0.0069319853,0.0255363496,-0.0010952688,0.5887827137,9.6559616032
1520621178367803459,-0.0471076464,0.0057711324,0.0231014120,0.0013098666,0.5959773689,9.6152561387
1520621178372818459,-0.0471085285,0.0043105676,0.0244430260,-0.0095132428,0.5803893863,9.6409438526
1520621178377834459,-0.0498772614,0.0002264590,0.0257697663,0.0241586532,0.5719927809,9.6348135766
1520621178382848459,-0.0526498558,-0.0029667420,0.0208806202,0.0494125752,0.5911770608,9.6043333182
1520621178387865459,-0.0536554079,-0.0050148403,0.0238429303,0.0397920335,0.6139614781,9.6299719082
1520621178392880459,-0.0546660134,-0.0085096631,0.0230064825,0.0349817626,0.6151609932,9.6532604381
1520621178397895459,-0.0566820808,-0.0131747885,0.0237862846,0.0482100075,0.6391427714,9.6496218639
1520621178402910459,-0.0556814606,-0.0163788960,0.0234894179,0.0518177106,0.6559304563,9.6484082340
1520621178407926459,-0.0551811525,-0.0187126891,0.0245528833,0.0409946012,0.6631261418,9.6194529646
1520621178412942459,-0.0536747238,-0.0198783649,0.0248117366,0.0421971689,0.6223552738,9.6264538808
1520621178417958459,-0.0516681124,-0.0210358310,0.0220936515,0.0265637886,0.6019711041,9.6091937660
1520621178422972459,-0.0479035580,-0.0248230815,0.0223282964,0.0710587940,0.6175564642,9.5576111435
1520621178427989459,-0.0446432242,-0.0280197471,0.0195923161,0.1059332577,0.5983675013,9.5421825349
1520621178433003459,-0.0403696504,-0.0277303309,0.0209393344,0.1335923151,0.6151533131,9.5453833797
1520621178438019459,-0.0330887157,-0.0326810127,0.0208880069,0.1552385339,0.6103550655,9.5242587749
1520621178443035459,-0.0275677549,-0.0390929484,0.0221815606,0.1696693465,0.6151505033,9.5043571896
1520621178448050459,-0.0217945701,-0.0443370623,0.0226719023,0.1540359662,0.5983637549,9.5347414689
1520621178453066459,-0.0162709669,-0.0478307822,0.0223644114,0.1540359662,0.5791775081,9.5858945123
1520621178458081459,-0.0079794307,-0.0507501196,0.0255733295,0.1816950236,0.5887684773,9.5588866304
1520621178463097459,0.0013121573,-0.0559935835,0.0263276828,0.1335923151,0.5971662067,9.5430766319
1520621178468112459,0.0086002624,-0.0559921852,0.0268552397,0.1480231276,0.6007625041,9.5766348379
1520621178473128459,0.0189041770,-0.0545268553,0.0252239441,0.1528333985,0.6499268868,9.6009450978
1520621178478144459,0.0246844029,-0.0539403649,0.0246765638,0.1384025859,0.6307417639,9.5801856767
1520621178483158459,0.0309688965,-0.0527738222,0.0252148799,0.1408077214,0.7038891424,9.5847395127
1520621178488175459,0.0410215083,-0.0527720693,0.0260078486,0.1696693465,0.7110817371,9.6053701665
1520621178493190459,0.0495680443,-0.0510204147,0.0260053185,0.1432128568,0.7002915338,9.5940167623
1520621178498207459,0.0581161249,-0.0463469020,0.0230490145,0.1432128568,0.6990923934,9.6312065381
1520621178503222459,0.0644013713,-0.0428412704,0.0206291103,0.1552385339,0.7074854398,9.6810534922
1520621178508237459,0.0709342666,-0.0413723183,0.0171109943,0.1696693465,0.7134800180,9.6681236014
1520621178513253459,0.0779683992,-0.0396059573,0.0114298008,0.1792898882,0.7134792687,9.6378142181
1520621178518268459,0.0827421557,-0.0393083316,0.0097998807,0.1744796173,0.7026873795,9.6436822821
1520621178523284459,0.0867643914,-0.0372626940,0.0081846994,0.1961258361,0.6918934298,9.6644007064
1520621178528299459,0.0910401763,-0.0311266481,0.0025419861,0.2045438101,0.6942910551,9.6619921444
1520621178533314459,0.0950604754,-0.0308307746,0.0014545580,0.1660616433,0.7110820181,9.6948903661
1520621178538330459,0.0965670805,-0.0317043374,0.0014450884,0.1997335393,0.7218716594,9.6771199412
1520621178543346459,0.0990825347,-0.0290772500,0.0001076994,0.2045438101,0.7614429188,9.7386281624
1520621178548362459,0.1005896691,-0.0290744740,-0.0007067386,0.2009361070,0.7614431998,9.7560954368
1520621178553376459,0.1000891845,-0.0270327939,-0.0015018812,0.2370131384,0.7374575815,9.7790105510
1520621178558392459,0.0998420609,-0.0255832540,0.0012151599,0.2454311124,0.7674354365,9.8370065798
1520621178563407459,0.0950668970,-0.0267543049,0.0025678648,0.2370131384,0.7494489857,9.8336196235
1520621178568424459,0.0915443578,-0.0299609131,0.0025499449,0.2358105707,0.7866224325,9.8184872076
1520621178573439459,0.0895343553,-0.0325972733,0.0074034971,0.2057463779,0.8142050037,9.8268879469
1520621178578455459,0.0855155539,-0.0311419259,0.0074220801,0.1937207007,0.7734351659,9.8293690429
1520621178583469459,0.0835071822,-0.0314421108,0.0103995956,0.2081515133,0.7626417782,9.7920504997
1520621178588486459,0.0797362022,-0.0331948085,0.0114754416,0.2021386747,0.7506508423,9.7886342866
1520621178593502459,0.0777287166,-0.0305709502,0.0106875454,0.2237848935,0.7182723650,9.7489422733
1520621178598517459,0.0744650426,-0.0285339952,0.0112502662,0.2261900290,0.6822979649,9.7582510950
1520621178603532459,0.0699414873,-0.0288278804,0.0115269901,0.2177720550,0.6691080759,9.8094802271
1520621178608547459,0.0659230818,-0.0270811485,0.0115477961,0.1889104299,0.6751060259,9.7876745666
1520621178613563459,0.0654192531,-0.0276626576,0.0110031916,0.2045438101,0.6655116849,9.7666131644
1520621178618579459,0.0629001098,-0.0305702032,0.0082801690,0.2418234092,0.6715044836,9.7534608775
1520621178623594459,0.0558689332,-0.0270778024,0.0088610061,0.3127749043,0.6379230258,9.7841809074
1520621178628609459,0.0508408043,-0.0273653286,0.0067037503,0.2682798989,0.6547144571,9.8252726621
1520621178633624459,0.0430475102,-0.0276510241,0.0034694449,0.2177720550,0.6703072163,9.8292355049
1520621178638642459,0.0380131831,-0.0305522699,-0.0019543694,0.2261900290,0.6619125778,9.8024324440
1520621178643656459,0.0329782837,-0.0340370131,-0.0071120840,0.2418234092,0.6631105006,9.8371434275
1520621178648673459,0.0276986404,-0.0328604308,-0.0119632166,0.2430259770,0.6906906367,9.8138619486
1520621178653687459,0.0183953970,-0.0348957526,-0.0149375143,0.2875209823,0.6750983458,9.8204169266
1520621178658703459,0.0141225289,-0.0340167169,-0.0173578238,0.2610644926,0.6751004063,9.7555943764
1520621178663719459,0.0083422207,-0.0325540460,-0.0203119786,0.2466336801,0.6631101260,9.7778272656
1520621178668734459,0.0020594873,-0.0322629376,-0.0211097251,0.2526465187,0.6810967640,9.8195883826
1520621178673750459,-0.0019594004,-0.0302219074,-0.0221688795,0.2803055761,0.6679040652,9.8018998697
1520621178678764459,-0.0072318811,-0.0270202021,-0.0215935326,0.3260031491,0.6499133997,9.7921754661
1520621178683780459,-0.0112478246,-0.0241108458,-0.0204816506,0.3199903106,0.6882863616,9.7712779813
1520621178688796459,-0.0142594118,-0.0229545019,-0.0174911527,0.3308134200,0.7014760633,9.8106726675
1520621178693812459,-0.0155097509,-0.0200484332,-0.0147611293,0.3151800397,0.6918841575,9.8294284912
1520621178698827459,-0.0172630405,-0.0177267874,-0.0114935268,0.3320159877,0.6870862846,9.8141614264
1520621178703842459,-0.0160025906,-0.0162759283,-0.0090498319,0.3175851752,0.6858882681,9.7387636994
1520621178708859459,-0.0152450874,-0.0139460136,-0.0084923556,0.3428390971,0.7062716884,9.7106065595
1520621178713874459,-0.0134833140,-0.0127834285,-0.0071340008,0.3187877429,0.7146675446,9.7178053390
1520621178718889459,-0.0119762267,-0.0139512896,-0.0060635099,0.3260031491,0.7014764379,9.7805037449
1520621178723905459,-0.0087110120,-0.0145298650,-0.0071562071,0.3079646335,0.6870881578,9.7737204891
1520621178728920459,-0.0049429762,-0.0136454934,-0.0104030894,0.3091672012,0.6966811875,9.7760237173
1520621178733935459,0.0000816831,-0.0136391537,-0.0120356993,0.3151800397,0.7350532127,9.7294420149
1520621178738951459,0.0056125939,-0.0101323606,-0.0149952950,0.2851158469,0.7518435202,9.7541232936
1520621178743967459,0.0101376469,-0.0080872546,-0.0163408639,0.2875209823,0.7926141072,9.7761408611
1520621178748982459,0.0151634118,-0.0051576000,-0.0214683396,0.3248005814,0.7782215187,9.8234399386
1520621178753998459,0.0169223350,-0.0025220667,-0.0260508791,0.3019517949,0.7794224387,9.8143640137
1520621178759013459,0.0222014648,0.0012789262,-0.0300899686,0.2815081438,0.7950128564,9.8168720861
1520621178764029459,0.0272362859,0.0082763092,-0.0308575867,0.3344211231,0.8297838076,9.8453767517
1520621178769044459,0.0337687813,0.0079903983,-0.0319541282,0.3825238317,0.8381740442,9.8321167805
1520621178774061459,0.0345249203,0.0091540465,-0.0311349983,0.3921443734,0.8309784524,9.8308680122
1520621178779077459,0.0372869649,0.0079917766,-0.0319606623,0.4041700505,0.7986007243,9.7982425030
1520621178784090459,0.0430661754,0.0065327479,-0.0303592370,0.3596750451,0.7878119260,9.8079832658
1520621178789107459,0.0483434038,0.0053641783,-0.0284841093,0.3572699097,0.7806172707,9.7777979492
1520621178794123459,0.0528655948,0.0044917970,-0.0284991795,0.3861315348,0.7566322144,9.7833511344
1520621178799137459,0.0563847899,0.0050752160,-0.0282307216,0.3849289671,0.7614288698,9.8007903214
1520621178804154459,0.0601607410,0.0103237996,-0.0290093446,0.3584724774,0.7566343686,9.8022146539
1520621178809169459,0.0634293900,0.0132462091,-0.0316986401,0.3488519357,0.7506394158,9.8162598685
1520621178814184459,0.0674535193,0.0173344521,-0.0343804434,0.3717007222,0.7830144277,9.8020601728
1520621178819200459,0.0739859324,0.0190977024,-0.0389785200,0.3717007222,0.7698238830,9.8113701872
1520621178824215459,0.0775023126,0.0179342711,-0.0392644923,0.3777135608,0.7962045040,9.7996644969
1520621178829231459,0.0792566608,0.0173653030,-0.0441420317,0.3765109931,0.8069968615,9.8298814207
1520621178834246459,0.0830259707,0.0185381454,-0.0463045074,0.3981572119,0.8369736862,9.7901286018
1520621178839262459,0.0885543685,0.0182481984,-0.0460464525,0.3981572119,0.8417702479,9.7831510607
1520621178844278459,0.0940829036,0.0200066844,-0.0490193867,0.4186008630,0.8285781110,9.7608842024
1520621178849292459,0.0968419138,0.0170982927,-0.0506700269,0.4125880245,0.8273794389,9.7934839277
1520621178854308459,0.1001092808,0.0168052744,-0.0495961338,0.4077777536,0.7854098987,9.7610316441
1520621178859325459,0.1053877833,0.0159251756,-0.0466365994,0.3885366702,0.7650260101,9.7414823565
1520621178864340459,0.1081511452,0.0147585352,-0.0458389880,0.3933469411,0.7518350908,9.7472591188
1520621178869356459,0.1086528137,0.0121275302,-0.0426133785,0.3861315348,0.7254545634,9.7601386581
1520621178874370459,0.1086532528,0.0121260734,-0.0420722867,0.4041700505,0.6690935586,9.7332887302
1520621178879388459,0.1086538252,0.0127095708,-0.0423383864,0.3813212639,0.6654979169,9.7358389222
1520621178884401459,0.1068973679,0.0127001405,-0.0390885686,0.3644853160,0.6619018069,9.7638977560
1520621178889418459,0.1041328141,0.0115291488,-0.0374690516,0.3656878837,0.6547068707,9.7499473395
1520621178894433459,0.0998649563,0.0141477505,-0.0366294718,0.3849289671,0.6523070912,9.7741674203
1520621178899447459,0.0945835880,0.0106468833,-0.0358347100,0.4318291079,0.6702905449,9.7388290644
1520621178904464459,0.0885498639,0.0086041002,-0.0355685243,0.4594881653,0.6942711991,9.7559686206
1520621178909479459,0.0832742586,0.0091818880,-0.0344720934,0.4366393787,0.6882772766,9.7922233260
1520621178914495459,0.0782463884,0.0071373135,-0.0333961369,0.4402470819,0.7266494891,9.7956372238
1520621178919510459,0.0732217683,0.0053746539,-0.0288008608,0.5136037124,0.7338386184,9.7960783433
1520621178924527459,0.0666894022,0.0047820407,-0.0260877132,0.5075908738,0.7074579974,9.8194054731
1520621178929541459,0.0583940279,0.0009820516,-0.0228546606,0.5617064209,0.7566185401,9.8095336510
1520621178934556459,0.0518625361,-0.0010769539,-0.0166355318,0.5929731814,0.8045817218,9.7882639548
1520621178939574459,0.0448303362,-0.0025570293,-0.0090582939,0.5316422281,0.7985907964,9.7516781528
1520621178944589459,0.0410677968,-0.0005326546,-0.0038953595,0.4907549258,0.8153819468,9.7613569057
1520621178949603459,0.0327804279,0.0009093641,0.0004598922,0.4991728998,0.8117838699,9.7845213574
1520621178954619459,0.0282609576,0.0011873215,0.0047992506,0.4943626290,0.7949962786,9.8136381472
1520621178959634459,0.0219845988,0.0043842625,0.0069997398,0.4919574935,0.8033904489,9.8264369554
1520621178964651459,0.0174660538,0.0058299433,0.0105363529,0.5256293895,0.8189766519,9.8307425883
1520621178969666459,0.0104337755,0.0078625076,0.0121882581,0.5869603429,0.8189718752,9.8626856611
1520621178974682459,0.0059104358,0.0061044155,0.0151593255,0.6230373742,0.7949862570,9.8646821841
1520621178979697459,0.0039040832,0.0055048334,0.0211106228,0.6278476451,0.7506176867,9.9297586909
1520621178984712459,0.0001378939,0.0054924301,0.0251758121,0.6543041348,0.7374250815,9.9434597698
1520621178989728459,-0.0046352510,0.0040219819,0.0295022987,0.6603169733,0.7733988259,9.9294204369
1520621178994743459,-0.0066450772,0.0016777347,0.0340875281,0.6531015671,0.7494165794,9.9376490617
1520621178999758459,-0.0099097665,0.0016691704,0.0367990544,0.7240530621,0.7506101939,9.9520651654
1520621179004774459,-0.0129189348,0.0042809801,0.0403417595,0.7264581976,0.7362203215,9.9311371962
1520621179009791459,-0.0149277024,0.0036894107,0.0433170520,0.7228504944,0.7014455302,9.9521248134
1520621179014806459,-0.0126556748,0.0109734531,0.0439095204,0.7493069841,0.6774606612,9.9855928636
1520621179019822459,-0.0133993664,0.0176713597,0.0453147810,0.7974096926,0.6858508977,9.9630357408
1520621179024837459,-0.0141415683,0.0231935302,0.0504987918,0.8022199635,0.7026384890,9.9583239741
1520621179029852459,-0.0123663362,0.0327997107,0.0543565291,0.7974096926,0.7194268296,9.9502194158
1520621179034867459,-0.0098454757,0.0374577487,0.0562812525,0.8202584792,0.7841786329,9.9325017161
1520621179039884459,-0.0063136177,0.0444385155,0.0614684445,0.8142456406,0.7649928544,9.9349032388
1520621179044899459,-0.0047972979,0.0476304959,0.0666304701,0.8310815886,0.7446061560,9.9649749896
1520621179049913459,-0.0032715690,0.0554744306,0.0756157076,0.7950045572,0.6978424893,9.9955874883
1520621179054930459,-0.0007425345,0.0627396323,0.0832419026,0.8262713177,0.6990391946,10.0173627226
1520621179059946459,-0.0002342680,0.0644772099,0.0873124961,0.8382969949,0.7038348196,10.0311867221
1520621179064961459,-0.0022366649,0.0653279945,0.0957098219,0.8094353698,0.6810533994,10.0675163235
1520621179069977459,-0.0014777582,0.0670678558,0.0989683110,0.8358918594,0.6594668113,10.1230627702
1520621179074992459,-0.0044923797,0.0664780779,0.1011338327,0.8611457814,0.5767241552,10.1624105429
1520621179080008459,-0.0082571655,0.0658756212,0.1079000348,0.9008305159,0.5539373964,10.1713436451
1520621179085023459,-0.0097606970,0.0667389860,0.1116971469,0.9080459222,0.5371488685,10.2026676722
1520621179090038459,-0.0130257392,0.0661461959,0.1149453189,0.8888048388,0.5227606820,10.2075175610
1520621179095055459,-0.0172994933,0.0641011883,0.1162904211,0.9284895733,0.4987747827,10.2327218480
1520621179100068459,-0.0215782146,0.0600237733,0.1149145027,0.8888048388,0.4987778735,10.2133516676
1520621179105085459,-0.0266105266,0.0553596518,0.1148882678,0.9248818702,0.5011733446,10.1967281619
1520621179110100459,-0.0296349530,0.0498265349,0.1132283545,0.9260844379,0.5311517615,10.1966872233
1520621179115116459,-0.0301440233,0.0431157526,0.1164247077,0.8948176774,0.5203619328,10.2074613744
1520621179120131459,-0.0341662159,0.0407772737,0.1185787578,0.9140587608,0.5095681705,10.1910146022
1520621179125147459,-0.0364338880,0.0366984611,0.1180107433,0.8996279482,0.4987770306,10.1923277309
1520621179130163459,-0.0359344580,0.0343675818,0.1179920252,0.8731714585,0.5311558825,10.1960401019
1520621179135178459,-0.0359360850,0.0334948850,0.1174442641,0.8924125419,0.5683277371,10.1818708440
1520621179140194459,-0.0336815228,0.0282508496,0.1174000481,0.9357049796,0.5779174887,10.1244950535
1520621179145210459,-0.0326848583,0.0235963753,0.1146571529,0.9236793025,0.5875115487,10.0920627186
1520621179150224459,-0.0309293694,0.0227309237,0.1116712117,0.9200715993,0.6198886211,10.0641748067
1520621179155241459,-0.0271654696,0.0204093370,0.1086704213,0.9092484899,0.6054997790,10.0387270173
1520621179160256459,-0.0254092318,0.0204194958,0.1051500576,0.9345024119,0.5719218803,10.0454868163
1520621179165272459,-0.0203811382,0.0239268205,0.1019208494,0.9513383599,0.5911068158,10.0023049098
1520621179170287459,-0.0158517728,0.0294699977,0.1000608657,0.9248818702,0.5959054380,9.9874498723
1520621179175303459,-0.0150925484,0.0350138834,0.0973962452,0.9477306567,0.6030985010,10.0116254832
1520621179180319459,-0.0118203397,0.0390952751,0.0971507551,0.9549460630,0.5875091136,9.9708954159
1520621179185332459,-0.0077941052,0.0422984381,0.0985204710,0.8876022711,0.6330816946,9.9738307521
1520621179190349459,-0.0062838933,0.0437544946,0.0990698778,0.8803868648,0.6222899928,9.9739115065
1520621179195366459,-0.0052710493,0.0469491917,0.1031506533,0.8382969949,0.6031070241,9.9964206280
1520621179200380459,-0.0035061553,0.0492722160,0.1064117217,0.8635509168,0.5647325637,10.0159686879
1520621179205396459,-0.0027476837,0.0524770127,0.1067053214,0.8503226720,0.5671318748,10.0102843851
1520621179210412459,-0.0047552203,0.0524667554,0.1102261518,0.8094353698,0.5455505316,10.0234869886
1520621179215428459,-0.0072704158,0.0480826196,0.1147967530,0.8322841563,0.5251633649,9.9826094329
1520621179220444459,-0.0118016708,0.0419603155,0.1152995610,0.8419046980,0.5023789475,10.0197266164
1520621179225459459,-0.0148215261,0.0381682215,0.1163584451,0.8539303751,0.4472175515,10.0556898180
1520621179230474459,-0.0193474611,0.0346625506,0.1190456281,0.8274738854,0.4172411014,10.0350579716
1520621179235489459,-0.0256349931,0.0302864076,0.1201061335,0.8106379375,0.4280346764,10.0224277348
1520621179240505459,-0.0304149909,0.0276679037,0.1179306263,0.8178533437,0.4112461486,9.9956445643
1520621179245521459,-0.0349424588,0.0256308103,0.1163001903,0.7757634738,0.3836691969,9.9612168174
1520621179250535459,-0.0404782858,0.0227257255,0.1122300390,0.7733583384,0.3836693842,9.9751859550
1520621179255551459,-0.0447544509,0.0221522092,0.1081753386,0.7769660415,0.4064527713,9.9879122059
1520621179260567459,-0.0472731473,0.0221701638,0.1011458126,0.7877891509,0.4040536475,9.9727013277
1520621179265583459,-0.0500391006,0.0230527040,0.0976405192,0.7925994218,0.3920618686,9.9842876404
1520621179270599459,-0.0538147773,0.0219009861,0.0919571638,0.8310815886,0.4184399608,9.9420501707
1520621179275613459,-0.0543222950,0.0210390190,0.0873521478,0.8491201043,0.4472179261,9.9546301142
1520621179280630459,-0.0563342656,0.0213361717,0.0849231916,0.8274738854,0.4448213311,9.9385731286
1520621179285644459,-0.0590992544,0.0216301154,0.0835778192,0.8046250989,0.4688059191,9.9166914027
1520621179290661459,-0.0631211295,0.0230956608,0.0798087596,0.8022199635,0.4700052469,9.9353079468
1520621179295676459,-0.0628715830,0.0245650652,0.0752201281,0.7925994218,0.4352309239,9.9598405211
1520621179300690459,-0.0633745217,0.0283710779,0.0684863143,0.8419046980,0.4064477137,9.9710101175
1520621179305707459,-0.0621186784,0.0313007125,0.0628247477,0.8310815886,0.4172408204,10.0094556894
1520621179310722459,-0.0603569442,0.0342196176,0.0612204361,0.8419046980,0.4064477137,10.0395766108
1520621179315738459,-0.0563364687,0.0348076041,0.0598646852,0.9345024119,0.4028430806,10.0084630866
1520621179320753459,-0.0538193013,0.0377217055,0.0601527947,0.9826051204,0.4292204235,10.0021584392
1520621179325770459,-0.0508016924,0.0388869682,0.0606971782,0.9826051204,0.4352161256,9.9823961452
1520621179330785459,-0.0440153107,0.0374217774,0.0647316497,0.9922256621,0.4448084997,10.0206439006
1520621179335799459,-0.0362276423,0.0356772508,0.0644332968,0.9753897141,0.4771866024,9.9986954641
1520621179340816459,-0.0289457001,0.0298451311,0.0670807591,1.0186821518,0.5095600221,9.9947560780
1520621179345830459,-0.0204082752,0.0234314631,0.0694508957,1.0391258029,0.5611214680,10.0014796742
1520621179350845459,-0.0118611316,0.0225468168,0.0745687299,1.0427335061,0.5994936806,9.9874614127
1520621179355862459,-0.0002987940,0.0228354460,0.0772549427,0.9850102558,0.6366715294,9.9786898543
1520621179360878459,0.0112621361,0.0222506500,0.0796639403,0.9200715993,0.6270834637,9.9595748348
1520621179365893459,0.0200680155,0.0274880910,0.0837458089,0.9284895733,0.6798449867,9.9803600397
1520621179370909459,0.0318891320,0.0336059660,0.0859349249,0.9128561931,0.6462702724,9.9782206590
1520621179375925459,0.0424513825,0.0394385201,0.0856892383,0.9224767348,0.6414729614,9.9211866421
1520621179380938459,0.0515039073,0.0449841980,0.0835503078,0.8827920002,0.6558657373,9.9076131495
1520621179385955459,0.0598012654,0.0517045882,0.0779045730,0.8707663231,0.6306847250,9.9100790441
1520621179390971459,0.0678462662,0.0566722022,0.0738692419,0.8984253805,0.5887126560,9.9400664975
1520621179395986459,0.0751400520,0.0628014168,0.0711969328,0.8827920002,0.6342812097,9.9529578118
1520621179401001459,0.0801674478,0.0680672466,0.0641934205,0.9164638962,0.6138932000,9.9154613424
1520621179406017459,0.0824336771,0.0744924325,0.0590977559,0.9200715993,0.6007023744,9.9421684010
1520621179411033459,0.0857020674,0.0791718904,0.0531752481,0.9080459222,0.5755213621,9.9283642802
1520621179416049459,0.0882107550,0.0800652393,0.0464136028,0.9537434953,0.5707212413,9.9093298621
1520621179421064459,0.0892140254,0.0827063046,0.0396680962,0.9489332245,0.5959035648,9.9105142702
1520621179426080459,0.0877032059,0.0838865491,0.0339983251,0.9320972765,0.5647272251,9.8863035208
1520621179431094459,0.0844386146,0.0876827376,0.0305161960,0.9320972765,0.5659263655,9.8897887833
1520621179436111459,0.0831846335,0.0914789853,0.0273008790,0.9152613285,0.5443431491,9.9399458922
1520621179441126459,0.0766514442,0.0949868800,0.0221993188,0.8888048388,0.4843881884,9.9100461276
1520621179446142459,0.0713744785,0.0958618798,0.0211336056,0.9056407868,0.4855860176,9.8854760644
1520621179451156459,0.0681093108,0.0976110923,0.0203413738,0.9080459222,0.4867849707,9.8622086059
1520621179456173459,0.0593174547,0.0984737872,0.0233403833,0.8960202451,0.4699979414,9.8030726856
1520621179461188459,0.0497727605,0.1010888645,0.0247308560,0.9188690316,0.4352210896,9.8086949201
1520621179466204459,0.0422334859,0.1002088435,0.0258203720,0.9513383599,0.4412142629,9.7642115666
1520621179471220459,0.0356958861,0.0964139142,0.0274268821,0.9573511984,0.4448112159,9.7711223970
1520621179476235459,0.0248943881,0.0981514319,0.0298952028,0.9669717402,0.4412130453,9.7687079767
1520621179481249459,0.0168513711,0.0961042191,0.0315178517,0.9405152505,0.4544056505,9.7398990263
1520621179486266459,0.0057884165,0.0923140734,0.0306978497,0.9369075473,0.3908514890,9.7899683065
1520621179491282459,-0.0065352977,0.0861960015,0.0285096672,0.9573511984,0.3908498968,9.7851207448
1520621179496296459,-0.0198602946,0.0818207439,0.0282305114,0.9140587608,0.4124377962,9.8052775259
1520621179501311459,-0.0334355318,0.0791980656,0.0263418854,0.9116536254,0.3932517367,9.7820767664
1520621179506328459,-0.0437390935,0.0783169616,0.0274365354,0.9525409276,0.4304219054,9.8130204317
1520621179511344459,-0.0585633526,0.0785959813,0.0299012082,0.9092484899,0.4448149623,9.8552649640
1520621179516360459,-0.0741436173,0.0782963073,0.0307395596,0.8888048388,0.4352234311,9.8868511914
1520621179521374459,-0.0887229992,0.0744989558,0.0320904590,0.9008305159,0.4148371073,9.9460233613
1520621179526391459,-0.1033045373,0.0689525688,0.0336985657,0.8984253805,0.4376209627,9.9739160089
1520621179531405459,-0.1214033338,0.0645725268,0.0345104611,0.8863997034,0.4292279163,10.0147162832
1520621179536422459,-0.1344786118,0.0604953081,0.0317981486,0.8743740263,0.4292288529,10.0113469019
1520621179541437459,-0.1475620207,0.0535180842,0.0239232332,0.8346892917,0.3824654672,10.0292109323
1520621179546452459,-0.1606411603,0.0503317730,0.0149950343,0.8551329428,0.4028492621,10.0034249006
1520621179551467459,-0.1732215285,0.0448167677,0.0052364796,0.8491201043,0.4136419942,9.9918514623
1520621179556483459,-0.1810281364,0.0410628667,-0.0085757928,0.8310815886,0.3932580119,10.0129655081
1520621179561499459,-0.1895852143,0.0378826982,-0.0191356681,0.8226636146,0.3824664038,10.0211929752
1520621179566514459,-0.1963882617,0.0303295373,-0.0286499731,0.8094353698,0.4148442254,10.0573166212
1520621179571530459,-0.2029353920,0.0256881348,-0.0373308764,0.8070302343,0.3920607447,10.0527136730
1520621179576545459,-0.2074698931,0.0207473943,-0.0427711857,0.8022199635,0.3992559619,10.0899420837
1520621179581560459,-0.2105039912,0.0108558928,-0.0490637255,0.7877891509,0.4520192644,10.0865446616
1520621179586576459,-0.2137915914,-0.0019553799,-0.0532136623,0.7950045572,0.5275645492,10.0643200278
1520621179591592459,-0.2140625511,-0.0144762718,-0.0565553390,0.7685480675,0.5383588735,10.0785127424
1520621179596608459,-0.2125718707,-0.0264195330,-0.0577314694,0.7396864424,0.5347637001,10.1206343541
1520621179601622459,-0.2085685549,-0.0389460355,-0.0583756215,0.7565223904,0.6007151121,10.1320276092
1520621179606639459,-0.2035507642,-0.0459416657,-0.0568150346,0.8034225312,0.6510753572,10.1245491360
1520621179611654459,-0.1977792534,-0.0532291134,-0.0549875251,0.7962071249,0.6798552893,10.0781055441
1520621179616670459,-0.1940194504,-0.0605129782,-0.0547795572,0.7252556298,0.6882547982,10.0776258131
1520621179621686459,-0.1867421225,-0.0677932793,-0.0553897611,0.7084196819,0.6774638456,10.1661231484
1520621179626701459,-0.1792161734,-0.0747718994,-0.0597858512,0.6747477859,0.6942544340,10.2326767247
1520621179631716459,-0.1721922535,-0.0826306974,-0.0620233099,0.6771529213,0.6966525275,10.2280024000
1520621179636732459,-0.1626483042,-0.0846579066,-0.0653031577,0.6759503536,0.6606784085,10.2431570567
1520621179641748459,-0.1536033929,-0.0855263305,-0.0661382667,0.6675323796,0.6822635917,10.2362450802
1520621179646763459,-0.1468188538,-0.0864000111,-0.0653458998,0.6819631922,0.7098426976,10.1721598073
1520621179651778459,-0.1402876835,-0.0896085085,-0.0632181214,0.6747477859,0.6954535744,10.1722440697
1520621179656794459,-0.1299905081,-0.0960236726,-0.0600396142,0.7444967133,0.6522790869,10.1495265375
1520621179661810459,-0.1189355669,-0.1004024918,-0.0554942160,0.7432941455,0.6702662869,10.1692771497
1520621179666825459,-0.1081267338,-0.1012862519,-0.0503805824,0.7336736038,0.6522799299,10.1112811325
1520621179671840459,-0.1008380681,-0.1050917917,-0.0428477324,0.7601300935,0.6618709927,10.1261221380
1520621179676857459,-0.0932999030,-0.1085985641,-0.0380185850,0.7517121195,0.6894518781,10.0808535643
1520621179681870459,-0.0850068692,-0.1097666806,-0.0358785120,0.6567092702,0.6930566985,10.1433683854
1520621179686888459,-0.0802310506,-0.1100612935,-0.0339957816,0.6963940047,0.6954518886,10.1952762578
1520621179691903459,-0.0744519694,-0.1106417981,-0.0340109624,0.7156350881,0.6870564070,10.1637192755
1520621179696918459,-0.0694207120,-0.1062668758,-0.0347985882,0.6855708953,0.6930544507,10.1814382145
1520621179701933459,-0.0674064010,-0.1015959229,-0.0377427575,0.7372813070,0.7326220572,10.1878691726
1520621179706950459,-0.0653956536,-0.0995474309,-0.0407069346,0.7481044164,0.7026427037,10.2435759704
1520621179711965459,-0.0671558823,-0.0977881580,-0.0450190633,0.7444967133,0.6822575975,10.2738467071
1520621179716981459,-0.0694193712,-0.0974903752,-0.0477180987,0.7240530621,0.7146359812,10.3414184703
1520621179721995459,-0.0706826790,-0.1003952432,-0.0512550926,0.8022199635,0.6582702934,10.3651176236
1520621179727012459,-0.0759573199,-0.1004060519,-0.0479987406,0.8250687500,0.6702599181,10.3207220639
1520621179732026459,-0.0819839677,-0.0998380291,-0.0433838129,0.7998148280,0.6546730594,10.2710108814
1520621179737043459,-0.0887608189,-0.0975263651,-0.0371308711,0.7456992810,0.6522789933,10.2692156597
1520621179742059459,-0.0947845616,-0.0943336963,-0.0333075732,0.7517121195,0.6570750867,10.2842603285
1520621179747074459,-0.1005555981,-0.0902675039,-0.0292075270,0.7108248173,0.6019178116,10.3509542954
1520621179752087459,-0.1123579790,-0.0850323088,-0.0272517542,0.6591144056,0.5827355922,10.2875584048
1520621179757105459,-0.1196363654,-0.0795046854,-0.0250316134,0.6603169733,0.6199088517,10.3154019051
1520621179762121459,-0.1291731403,-0.0710619176,-0.0235966790,0.6711400828,0.5947260599,10.2676732136
1520621179767136459,-0.1414739788,-0.0611574827,-0.0243098623,0.6579118379,0.5815365455,10.2747876957
1520621179772151459,-0.1537720927,-0.0503839932,-0.0231225551,0.6891785985,0.5395641955,10.2687135713
1520621179777167459,-0.1635667566,-0.0433829495,-0.0273797332,0.6374681868,0.5215811165,10.2843423002
1520621179782181459,-0.1768821524,-0.0369602257,-0.0337991905,0.6350630514,0.5167847421,10.2471817812
1520621179787198459,-0.1861746538,-0.0284940496,-0.0410221914,0.6446835931,0.5011951673,10.2331576147
1520621179792213459,-0.1977315694,-0.0208978142,-0.0501414824,0.6915837339,0.5059880763,10.2199128566
1520621179797229459,-0.2090410124,-0.0156303712,-0.0600906625,0.6711400828,0.5239767749,10.1375820817
1520621179802243459,-0.2203482992,-0.0086138927,-0.0702970499,0.6531015671,0.5503592691,10.1481912277
1520621179807259459,-0.2278854842,0.0001581973,-0.0826614669,0.6410758899,0.5179834143,10.0751247813
1520621179812276459,-0.2414596511,0.0036786323,-0.0934314226,0.6146194003,0.4868078238,10.0358998009
1520621179817291459,-0.2522687860,0.0066122822,-0.1023171373,0.6001885877,0.5059951945,10.0801830225
1520621179822307459,-0.2635807381,0.0095464636,-0.1114724643,0.6146194003,0.4952018067,10.0951609572
1520621179827323459,-0.2771510826,0.0139323110,-0.1189892001,0.6266450774,0.4616249383,10.0927523603
1520621179832337459,-0.2914719051,0.0159649338,-0.1184059434,0.6398733222,0.4748144527,10.1449072198
1520621179837353459,-0.3025236003,0.0191621894,-0.1170082242,0.6543041348,0.5203806648,10.1923702264
1520621179842369459,-0.3178552517,0.0162372394,-0.1151081637,0.6531015671,0.5395670053,10.2016603737
1520621179847385459,-0.3331858995,0.0109673729,-0.1080855158,0.7180402236,0.5371636668,10.2289220942
1520621179852399459,-0.3429880201,0.0045290353,-0.0991882069,0.7805737446,0.4927906008,10.2713560231
1520621179857414459,-0.3573143155,-0.0039573221,-0.0878631455,0.7925994218,0.4760016983,10.2329045928
1520621179862431459,-0.3696288167,-0.0130329452,-0.0738408051,0.8046250989,0.4939878680,10.1572306451
1520621179867447459,-0.3774244240,-0.0244335017,-0.0614679258,0.7865865832,0.5035823963,10.1004518125
1520621179872462459,-0.3862314248,-0.0384481716,-0.0523597381,0.6975965724,0.5179790122,10.0490074767
1520621179877478459,-0.3963007258,-0.0562491473,-0.0440897546,0.6506964316,0.5023938395,9.9065354689
1520621179882492459,-0.4000793742,-0.0685135410,-0.0349775629,0.6831657599,0.5203784170,9.8492568386
1520621179887509459,-0.4023522016,-0.0793073095,-0.0307268822,0.6891785985,0.4688149105,9.8376271553
1520621179892524459,-0.4031196510,-0.0900924745,-0.0294550067,0.6410758899,0.4496324101,9.7765204374
1520621179897539459,-0.3978540819,-0.1000033083,-0.0273760257,0.5785423689,0.4172604890,9.7271884825
1520621179902555459,-0.3928387062,-0.1069909257,-0.0287914437,0.5448704729,0.3776914775,9.7844998660
1520621179907571459,-0.3883282999,-0.1142635687,-0.0326430643,0.5268319572,0.3093418783,9.7684720788
1520621179912585459,-0.3820651764,-0.1244413550,-0.0394961878,0.5761372334,0.2757621064,9.8272942547
1520621179917602459,-0.3722811916,-0.1349193454,-0.0425704259,0.5605038532,0.2661702006,9.8425636466
1520621179922617459,-0.3665115744,-0.1442493986,-0.0396762945,0.5412627698,0.2517820140,9.7776848981
1520621179927633459,-0.3577299309,-0.1547372525,-0.0392315690,0.5448704729,0.2649722777,9.7265025862
1520621179932648459,-0.3469278253,-0.1591110711,-0.0365795255,0.5352499312,0.2817609929,9.7010126889
1520621179937664459,-0.3388890423,-0.1640745692,-0.0317624269,0.5725295303,0.2625718427,9.6611556471
1520621179942679459,-0.3288392533,-0.1687466236,-0.0266762932,0.6122142648,0.2733610157,9.6282188255
1520621179947695459,-0.3167825941,-0.1763331925,-0.0210750323,0.6037962908,0.2493788629,9.6748099059
1520621179952710459,-0.3072346970,-0.1798369920,-0.0170612564,0.5785423689,0.1798306852,9.6646642381
1520621179957726459,-0.2969349695,-0.1842117360,-0.0141377335,0.5484781760,0.1210751459,9.7022027687
1520621179962742459,-0.2878995573,-0.1906099100,-0.0174499941,0.5256293895,0.0779078702,9.7013051170
1520621179967757459,-0.2791143893,-0.1967189833,-0.0199479273,0.4727164101,0.0311455147,9.6681635691
1520621179972773459,-0.2715840768,-0.1975654165,-0.0291671587,0.4498676236,-0.0120217610,9.6556444779
1520621179977788459,-0.2615389765,-0.1987095341,-0.0356878215,0.4895523581,-0.1331380345,9.6600248901
1520621179982803459,-0.2532432062,-0.1946181605,-0.0389186509,0.5556935823,-0.2194812963,9.6920053351
1520621179987819459,-0.2431866700,-0.1884827639,-0.0434899153,0.5821500720,-0.2494618674,9.7475599672
1520621179992834459,-0.2351370981,-0.1817741270,-0.0448064490,0.5617064209,-0.2434645731,9.7407802427
1520621179997851459,-0.2280893773,-0.1724426948,-0.0463716539,0.5593012855,-0.2914300027,9.7582825857
1520621180002865459,-0.2185337766,-0.1686545968,-0.0450077598,0.5701243949,-0.3429938838,9.7826325448
1520621180007882459,-0.2129966637,-0.1610706056,-0.0471245946,0.5580987177,-0.3741705982,9.8246171806
1520621180012897459,-0.2062071887,-0.1552286019,-0.0514214688,0.5568961500,-0.3393954323,9.8373785583
1520621180017913459,-0.1999236124,-0.1523028256,-0.0549280026,0.5869603429,-0.3322029312,9.8463760675
1520621180022928459,-0.1916310098,-0.1505425282,-0.0581766168,0.5701243949,-0.2974265477,9.8581274670
1520621180027942459,-0.1853506443,-0.1496549868,-0.0622398040,0.5857577751,-0.2386698846,9.8927823222
1520621180032958459,-0.1795752954,-0.1502231080,-0.0668542651,0.6470887285,-0.1931073251,9.8444930273
1520621180037975459,-0.1722907970,-0.1525513290,-0.0668855847,0.6314553482,-0.1475387715,9.8724922131
1520621180042989459,-0.1617346232,-0.1531379757,-0.0639336284,0.6675323796,-0.1763209514,9.9267898914
1520621180048005459,-0.1544466122,-0.1554778516,-0.0596362137,0.6170245357,-0.2386723197,9.9540716203
1520621180053019459,-0.1479100748,-0.1548990786,-0.0572089893,0.5172114155,-0.2818336012,9.9922738428
1520621180058037459,-0.1391035328,-0.1482003444,-0.0547392806,0.4498676236,-0.3585733433,10.0092741790
1520621180063052459,-0.1303016482,-0.1426569503,-0.0560661068,0.3993597796,-0.4149290095,10.0040100305
1520621180068069459,-0.1210027917,-0.1391435813,-0.0609265246,0.3500545034,-0.4377088375,10.0161335948
1520621180073083459,-0.1111945631,-0.1309693199,-0.0652112148,0.3897392379,-0.4329153666,9.9715811804
1520621180078098459,-0.1034009906,-0.1251232802,-0.0708626853,0.4703112747,-0.3549775143,9.8765872742
1520621180083113459,-0.0903283941,-0.1222079574,-0.0695119946,0.5220216864,-0.2518554652,9.8457676508
1520621180088130459,-0.0775078493,-0.1216318220,-0.0652026170,0.6446835931,-0.1451415209,9.8154160650
1520621180093145459,-0.0626763492,-0.1233983585,-0.0563154776,0.7156350881,-0.0779951831,9.7995521123
1520621180098161459,-0.0468366744,-0.1275159735,-0.0398727047,0.7252556298,0.0035456164,9.7842710854
1520621180103175459,-0.0307548941,-0.1377496514,-0.0245592669,0.7084196819,0.0766944935,9.7843636265
1520621180108192459,-0.0151775188,-0.1506118143,-0.0071005363,0.7769660415,0.1486375803,9.7743291263
1520621180113208459,-0.0003532010,-0.1617208665,0.0084791118,0.7817763124,0.1762174354,9.7603096838
1520621180118223459,0.0164811154,-0.1716570370,0.0216290053,0.6903811662,0.1810211152,9.7844374698
1520621180123239459,0.0323085311,-0.1789536583,0.0283076720,0.5136037124,0.1474589514,9.8501087721
1520621180128254459,0.0473773616,-0.1827226381,0.0233809424,0.3560673420,0.0599339699,9.8133767457
1520621180133269459,0.0606864103,-0.1818068448,0.0098355805,0.3524596388,0.0323540212,9.7227915273
1520621180138285459,0.0760190066,-0.1703967787,-0.0049862136,0.3729032900,0.0575343778,9.6714336512
1520621180143301459,0.0873409833,-0.1519972446,-0.0189355483,0.2454311124,0.0803279738,9.6308149874
1520621180148316459,0.1001714627,-0.1309651894,-0.0363847723,0.1913155653,0.0455571163,9.6906449674
1520621180153332459,0.1074764805,-0.1117018181,-0.0470734195,0.1853027267,0.0611464101,9.7685519362
1520621180158347459,0.1112645418,-0.0933219916,-0.0547861969,0.2322028675,0.0383590893,9.8087926949
1520621180163362459,0.1148084669,-0.0729171404,-0.0570720281,0.2947363886,0.0455490615,9.8686085015
1520621180168379459,0.1186072505,-0.0513532085,-0.0569145207,0.2959389563,0.0503455295,9.8627813993
1520621180173394459,0.1229113525,-0.0303835037,-0.0524336585,0.3043569303,0.0323577676,9.8441227008
1520621180178409459,0.1236926057,-0.0134974744,-0.0468952018,0.3187877429,0.0155686777,9.7847292692
1520621180183424459,0.1244754818,0.0027977731,-0.0383851864,0.3813212639,0.0539363009,9.7631645962
1520621180188441459,0.1237511766,0.0179196075,-0.0271758041,0.4522727590,0.0635238984,9.7252760366
1520621180193456459,0.1280523147,0.0307035936,-0.0127469901,0.4222085662,0.0959030313,9.6871863404
1520621180198472459,0.1328495858,0.0397041484,0.0000287149,0.4041700505,0.0551336618,9.6316187640
1520621180203487459,0.1361355041,0.0475451301,0.0103634148,0.3055594980,0.0719293079,9.6418593595
1520621180208503459,0.1406728201,0.0542327210,0.0163581545,0.2646721958,0.0911187391,9.6317793264
1520621180213519459,0.1439568998,0.0641286915,0.0210269522,0.2730901698,0.0779275388,9.6014945109
1520621180218534459,0.1464849307,0.0737388096,0.0235305598,0.2370131384,0.1115062805,9.5750836102
1520621180223550459,0.1497656702,0.0824750694,0.0260260981,0.1708719142,0.1366933807,9.5478113772
1520621180228565459,0.1517851248,0.0894705426,0.0255346265,0.1203640702,0.1882603526,9.4750376389
1520621180233580459,0.1538069984,0.0979214815,0.0255953622,0.0878947420,0.2098474090,9.5032240822
1520621180238596459,0.1565770916,0.1017083781,0.0264307661,0.1227692057,0.2518146077,9.4726279659
1520621180243611459,0.1593465654,0.1037411401,0.0294171986,0.1588462370,0.3093705382,9.4245727838
1520621180248627459,0.1608535155,0.1005248461,0.0337186786,0.1564411016,0.3777217297,9.4570695723
1520621180253641459,0.1616069611,0.0961361628,0.0404475796,0.1588462370,0.4053017721,9.4593435553
1520621180258658459,0.1616135513,0.0975777884,0.0461401588,0.0794767680,0.3909182686,9.4740758485
1520621180263673459,0.1616223879,0.1016462453,0.0502294704,-0.0311594616,0.3621475151,9.5019100888
1520621180268689459,0.1613863081,0.1115473933,0.0524698892,-0.1417956912,0.2890085660,9.5204904430
1520621180273705459,0.1598924640,0.1226230568,0.0512044373,-0.2355959728,0.2470459567,9.5284172280
1520621180278720459,0.1566326242,0.1299158596,0.0477489852,-0.2488242176,0.2230641785,9.5355422341
1520621180283735459,0.1521156708,0.1354540356,0.0464468954,-0.2235702957,0.2734261094,9.5445444673
1520621180288752459,0.1458439303,0.1415626366,0.0494812531,-0.1057186598,0.3105902838,9.6026304640
1520621180293767459,0.1365503507,0.1409587423,0.0559871772,0.0542228460,0.3261666526,9.6603278317
1520621180298782459,0.1280094679,0.1350905543,0.0697564248,0.1865052944,0.3237580691,9.7125012361
1520621180303798459,0.1144411501,0.1257128564,0.0875665182,0.2081515133,0.3345486471,9.7122800210
1520621180308813459,0.0996073643,0.1102177764,0.1045206228,0.1552385339,0.2973794150,9.6977234216
1520621180313829459,0.0880310975,0.0897791805,0.1181843168,0.0590331169,0.2889929248,9.6905330038
1520621180318845459,0.0744501129,0.0725406562,0.1334994739,-0.0035004042,0.3033874802,9.6190747095
1520621180323860459,0.0596054284,0.0535693580,0.1428516164,0.0397920335,0.3021849680,9.5431151398
1520621180328876459,0.0419987111,0.0401507651,0.1457580299,0.0915024451,0.2362282174,9.5450004239
1520621180333890459,0.0274099947,0.0267253410,0.1516348477,0.1023255545,0.1570841065,9.4903514890
1520621180338907459,0.0145776414,0.0109680729,0.1580317055,0.1167563671,0.0839354167,9.4414723119
1520621180343921459,-0.0025270075,-0.0033266619,0.1617421540,0.0746664971,0.0599558864,9.4116896329
1520621180348938459,-0.0130955111,-0.0158705298,0.1654538063,-0.0022978365,0.0491696168,9.3066941807
1520621180353953459,-0.0231586414,-0.0249110305,0.1667562890,-0.0275517585,0.1271157112,9.2801346689
1520621180358968459,-0.0359888383,-0.0389192630,0.1728959394,0.0397920335,0.1762752236,9.2654855154
1520621180363984459,-0.0442855809,-0.0453489971,0.1788144431,0.0470074397,0.2194437168,9.3246425305
1520621180369000459,-0.0513258294,-0.0517782389,0.1847306132,0.0001072989,0.2314387738,9.3704109485
1520621180374016459,-0.0616279092,-0.0567620361,0.1944516087,-0.0960981181,0.2074634581,9.4085593463
1520621180379031459,-0.0711795111,-0.0593926087,0.1960726118,-0.1598342069,0.2470400561,9.4103032701
1520621180384046459,-0.0764556065,-0.0614474797,0.2009366775,-0.1442008266,0.2926061746,9.3775666387
1520621180389062459,-0.0817350029,-0.0664183813,0.2065901500,-0.0708441961,0.3897308356,9.3616500424
1520621180394077459,-0.0897801762,-0.0702146298,0.2084700063,-0.0588185190,0.4305006734,9.3556825145
1520621180399092459,-0.0988362215,-0.0786756098,0.2111277979,-0.0323620293,0.4832607916,9.4041835985
1520621180404109459,-0.1026255922,-0.0941241087,0.2123697047,-0.0455902742,0.4844609622,9.4728776780
1520621180409124459,-0.1084303677,-0.1127764398,0.2127792536,-0.0672364930,0.4880600694,9.4951655962
1520621180414139459,-0.1142421765,-0.1343324181,0.2093789292,-0.0383748679,0.4688715748,9.5007141040
1520621180419156459,-0.1193005239,-0.1544231657,0.2030123152,-0.0431851387,0.4940538983,9.4031162760
1520621180424170459,-0.1241029543,-0.1716021548,0.1974791030,-0.0047029719,0.4640723906,9.4062573795
1520621180429186459,-0.1278968883,-0.1858647196,0.1911546170,0.0037150021,0.4628725946,9.3410965520
1520621180434201459,-0.1336962379,-0.1951687076,0.1827072902,-0.0119183782,0.4592763909,9.3156850588
1520621180439218459,-0.1394961129,-0.2038855559,0.1726411341,-0.0443877064,0.3969236177,9.3334940602
1520621180444233459,-0.1435263815,-0.2050264458,0.1629000571,-0.0780596024,0.3357700786,9.3582864612
1520621180449247459,-0.1477992849,-0.2009276117,0.1550932836,-0.0852750087,0.3009955682,9.2840133893
1520621180454264459,-0.1535824354,-0.1950650356,0.1413506392,-0.0708441961,0.2362408615,9.2235045873
1520621180459279459,-0.1596128349,-0.1854109170,0.1262846322,-0.0371723002,0.1834760603,9.1720939626
1520621180464295459,-0.1668962942,-0.1722563058,0.1096243605,0.0301714918,0.1534923048,9.1133605153
1520621180469311459,-0.1736816017,-0.1631845231,0.0942847616,0.0878947420,0.1247084390,9.0430980994
1520621180474326459,-0.1789567051,-0.1555836411,0.0843421649,0.1660616433,0.1450877383,9.0248852327
1520621180479342459,-0.1854934463,-0.1503077716,0.0719492040,0.2177720550,0.1570751151,9.0801531317
1520621180484356459,-0.1958064483,-0.1511575530,0.0614103804,0.2851158469,0.1858492403,9.0271731064
1520621180489373459,-0.2031086630,-0.1566734045,0.0527242081,0.2754953052,0.2206250619,9.0376921316
1520621180494388459,-0.2126854535,-0.1700502399,0.0412767541,0.3428390971,0.2685854339,9.0846377770
1520621180499403459,-0.2197541837,-0.1872148181,0.0300662785,0.3656878837,0.2457999863,9.1437069401
1520621180504420459,-0.2298403463,-0.2052525461,0.0180430968,0.3729032900,0.2038295095,9.2459463046
1520621180509435459,-0.2411782085,-0.2200869933,0.0065877943,0.3536622065,0.1258868805,9.3263975254
1520621180514450459,-0.2532709746,-0.2340402981,-0.0075648976,0.3464468003,0.0443458937,9.2986558159
1520621180519465459,-0.2666077445,-0.2404253817,-0.0189519968,0.3668904514,0.0083700888,9.2938433343
1520621180524482459,-0.2769260234,-0.2441846379,-0.0311363266,0.3356236908,-0.0192077058,9.2604723859
1520621180529498459,-0.2877463706,-0.2470677521,-0.0441246913,0.3296108523,-0.0299995013,9.1675699189
1520621180534511459,-0.2985611784,-0.2473349614,-0.0546581352,0.2923312532,-0.0479837042,9.0598709280
1520621180539529459,-0.3063559623,-0.2464449207,-0.0616711909,0.2887235500,-0.0611739679,9.0238924433
1520621180544544459,-0.3126432590,-0.2449678781,-0.0700353301,0.3079646335,-0.0455866409,8.9992849379
1520621180549558459,-0.3196819040,-0.2429141892,-0.0762292559,0.2887235500,-0.0599748275,8.9622976444
1520621180554574459,-0.3267230188,-0.2449500818,-0.0786666623,0.2562542218,-0.1139336177,9.0138006351
1520621180559590459,-0.3320047282,-0.2446447393,-0.0846066477,0.2418234092,-0.1762877958,8.9895968784
1520621180564605459,-0.3377893920,-0.2463872982,-0.0875852565,0.1913155653,-0.2350417428,8.9843350686
1520621180569621459,-0.3433099999,-0.2393911366,-0.0894154558,0.2009361070,-0.2878046707,8.9831307352
1520621180574636459,-0.3503358055,-0.2306479869,-0.0909589703,0.1997335393,-0.3333719132,9.0273483454
1520621180579652459,-0.3573512338,-0.2163780009,-0.0889431496,0.1985309716,-0.3309735387,9.0750056139
1520621180584666459,-0.3633637916,-0.2012218125,-0.0912512609,0.2249874613,-0.3429670034,9.0468683411
1520621180589684459,-0.3678713281,-0.1881047251,-0.0935777341,0.2478362478,-0.3069945702,8.9873415232
1520621180594698459,-0.3711218882,-0.1752814437,-0.0948265804,0.3368262586,-0.2566376033,8.9306433270
1520621180599713459,-0.3743648036,-0.1607273374,-0.0895689867,0.4871472227,-0.2158785364,8.8559253683
1520621180604730459,-0.3735913835,-0.1502546814,-0.0829972543,0.6146194003,-0.1943039367,8.8662850237
1520621180609746459,-0.3713166783,-0.1432722216,-0.0786193665,0.6735452182,-0.1427454879,8.9144712405
1520621180614761459,-0.3667828005,-0.1415490941,-0.0686042308,0.6687349473,-0.1679270621,8.9772983903
1520621180619776459,-0.3630140316,-0.1456430262,-0.0626903452,0.6639246765,-0.2278837086,8.9855386852
1520621180624791459,-0.3615176314,-0.1532147910,-0.0641036752,0.6699375151,-0.2926377598,9.0169211910
1520621180629807459,-0.3585053072,-0.1578859600,-0.0603572027,0.7288633330,-0.3310148427,9.0256822137
1520621180634822459,-0.3547368873,-0.1611006394,-0.0563304690,0.8046250989,-0.3478087092,9.0226368780
1520621180639839459,-0.3517210426,-0.1628565063,-0.0531028575,0.8058276666,-0.3538045050,9.0226310197
1520621180644855459,-0.3476979875,-0.1663748551,-0.0444795334,0.7685480675,-0.3298187931,9.0845641192
1520621180649868459,-0.3464372868,-0.1696080015,-0.0339550310,0.7757634738,-0.3238236529,9.1298116564
1520621180654885459,-0.3471792770,-0.1670135165,-0.0236528790,0.7264581976,-0.3418069192,9.2372263476
1520621180659901459,-0.3451496372,-0.1606372339,-0.0106215020,0.7072171142,-0.3250174547,9.1990465072
1520621180664915459,-0.3438749485,-0.1545504460,0.0015974145,0.6963940047,-0.2806484161,9.1840007158
1520621180669933459,-0.3428479989,-0.1473047742,0.0162606032,0.6759503536,-0.2866425260,9.0342889783
1520621180674947459,-0.3388058122,-0.1391786685,0.0290310391,0.6194296711,-0.2794432814,8.9232662804
1520621180679962459,-0.3340048873,-0.1266778572,0.0404806916,0.5436679052,-0.3190090148,8.8043414598
1520621180684977459,-0.3271953282,-0.1141704309,0.0497622432,0.5111985769,-0.3645738221,8.7872697719
1520621180689994459,-0.3188783641,-0.0990268414,0.0541911761,0.5075908738,-0.4089417368,8.7455109703
1520621180695010459,-0.3103081998,-0.0789135909,0.0527054251,0.4414496496,-0.4533047812,8.6509022097
1520621180700024459,-0.2974665238,-0.0579186857,0.0490540418,0.4222085662,-0.4976714783,8.6174305815
1520621180705041459,-0.2891503791,-0.0372111097,0.0432444692,0.4222085662,-0.5264508484,8.5558650161
1520621180710055459,-0.2773195203,-0.0167833419,0.0336384970,0.4462599204,-0.5432406876,8.5382151264
1520621180715071459,-0.2649856248,0.0036431660,0.0245726830,0.5436679052,-0.5228628868,8.5198149787
1520621180720087459,-0.2516533633,0.0153117780,0.0216608653,0.7132299527,-0.5228760929,8.5414074448
1520621180725102459,-0.2373186391,0.0231847722,0.0216942853,0.8118405052,-0.4761172965,8.5624827611
1520621180730117459,-0.2219964516,0.0173601737,0.0227035371,0.7553198227,-0.4053636095,8.6245575373
1520621180735134459,-0.2101998455,0.0036558882,0.0277174881,0.6723426505,-0.3430018449,8.6404122520
1520621180740149459,-0.1953852738,-0.0068354303,0.0303153793,0.6362656191,-0.3118213841,8.6360844250
1520621180745164459,-0.1823231959,-0.0129588553,0.0337615216,0.5893654783,-0.3393979611,8.6458649687
1520621180750180459,-0.1667385834,-0.0123809084,0.0377952193,0.5520858792,-0.3513864619,8.6102130562
1520621180755195459,-0.1521462838,-0.0054067360,0.0470200639,0.4715138424,-0.3741638547,8.6377488234
1520621180760210459,-0.1388045429,0.0044742335,0.0587043860,0.4113854568,-0.4233239291,8.5872476852
1520621180765227459,-0.1209334836,0.0187277432,0.0704136534,0.3873341025,-0.4952704813,8.5387419006
1520621180770242459,-0.1007995940,0.0326856554,0.0840103184,0.3392313940,-0.4892710328,8.4613406112
1520621180775258459,-0.0839341377,0.0422569511,0.1029906224,0.2923312532,-0.5000596438,8.3804575556
1520621180780273459,-0.0632989835,0.0503655168,0.1246582692,0.2478362478,-0.4544888423,8.3738733441
1520621180785289459,-0.0411560833,0.0573040360,0.1482080445,0.1913155653,-0.4245059297,8.3976371274
1520621180790304459,-0.0167521170,0.0610258282,0.1763284457,0.1540359662,-0.4233038858,8.4177552620
1520621180795319459,0.0048871152,0.0618210372,0.2087604842,0.1504282631,-0.4316975878,8.4573114570
1520621180800335459,0.0267718402,0.0588305312,0.2403515183,0.0578305492,-0.4352877973,8.4837834213
1520621180805351459,0.0491548934,0.0520493094,0.2729949023,-0.0203363522,-0.4184937435,8.4740685837
1520621180810366459,0.0765694196,0.0481788030,0.3075450041,-0.0383748679,-0.4304837428,8.4486886859
1520621180815382459,0.1022179973,0.0416960732,0.3380201767,-0.0540082481,-0.3957074529,8.3651325761
1520621180820397459,0.1301249242,0.0340545188,0.3663178892,-0.0443877064,-0.3957082022,8.3371474808
1520621180825413459,0.1560266982,0.0310779713,0.3933021755,-0.0732493316,-0.4136930607,8.3548781015
1520621180830429459,0.1867072899,0.0327727313,0.4176077044,-0.0997058212,-0.4448686512,8.3447067200
1520621180835443459,0.2181395866,0.0359385494,0.4367825765,-0.1285674464,-0.4664509310,8.3159550906
1520621180840460459,0.2510675426,0.0335839493,0.4502309459,-0.2608498948,-0.4952199986,8.3591078933
1520621180845476459,0.2814727093,0.0277485043,0.4574347498,-0.3318013898,-0.5084050173,8.3586492104
1520621180850490459,0.3136278176,0.0155047456,0.4640452871,-0.3570553118,-0.4628357143,8.3634991575
1520621180855506459,0.3440248024,0.0041351799,0.4703952147,-0.4340196454,-0.4112666819,8.4501966521
1520621180860522459,0.3746795116,-0.0016943393,0.4754341848,-0.4965531665,-0.3884781435,8.4868095602
1520621180865538459,0.4045833156,-0.0054851906,0.4807606626,-0.5374404688,-0.3716869932,8.6115405645
1520621180870553459,0.4342404429,-0.0049010018,0.4844976779,-0.5723149324,-0.4124550514,8.7025669971
1520621180875569459,0.4651646613,0.0012097872,0.4920622408,-0.5530738490,-0.4232488138,8.7419031347
1520621180880584459,0.4903098377,0.0061447609,0.5026046509,-0.4977557342,-0.4112617179,8.7890009108
1520621180885599459,0.5162086871,0.0096172799,0.5152989125,-0.4460453226,-0.3704949709,8.8326193061
1520621180890614459,0.5418469149,0.0078520633,0.5252481664,-0.4472478903,-0.3752914389,8.8826078786
1520621180895631459,0.5659761580,0.0037486238,0.5376173490,-0.4965531665,-0.3573004925,8.9667446105
1520621180900645459,0.5900992460,-0.0032613766,0.5472588417,-0.5771252033,-0.3536967960,9.0279568269
1520621180905662459,0.6159772898,-0.0134766461,0.5571431594,-0.5783277710,-0.3333113152,9.0430565246
1520621180910678459,0.6368347240,-0.0199066143,0.5673362576,-0.6456715629,-0.3117215426,9.0495016794
1520621180915692459,0.6584462351,-0.0245806956,0.5748358351,-0.7514975217,-0.2937261942,9.0295955931
1520621180920709459,0.6795544978,-0.0263258315,0.5766771131,-0.8657414544,-0.3344880709,8.9982073003
1520621180925723459,0.6971422011,-0.0298206530,0.5785115867,-0.9499211943,-0.3380789359,9.0420294885
1520621180930740459,0.7157408666,-0.0277729472,0.5782220649,-0.9896059288,-0.3596603728,9.0296532200
1520621180935755459,0.7353440688,-0.0257226622,0.5771190385,-0.9787828194,-0.4304105007,9.1191019500
1520621180940771459,0.7516803902,-0.0222101787,0.5735982818,-0.9920110643,-0.5215441426,9.1541838940
1520621180945786459,0.7665122157,-0.0172457338,0.5717147163,-1.0040367414,-0.5862967889,9.2868484997
1520621180950801459,0.7795829225,-0.0149095379,0.5717082314,-0.9859982257,-0.5659128066,9.3924081449
1520621180955817459,0.7903843695,-0.0192811713,0.5735486373,-0.9992264705,-0.5227427211,9.3983055241
1520621180960833459,0.8001787708,-0.0259886452,0.5769964008,-1.0425189082,-0.4399986601,9.4253755327
1520621180965848459,0.8102249531,-0.0329903190,0.5815236580,-1.1339140544,-0.3692422570,9.5412483774
1520621180970863459,0.8185162698,-0.0359089280,0.5844620302,-1.3215146176,-0.3356517142,9.6639045959
1520621180975879459,0.8260545329,-0.0356109476,0.5830975221,-1.3804404355,-0.3356471248,9.7865032589
1520621180980895459,0.8323363489,-0.0341428224,0.5798504187,-1.4044917898,-0.2768873709,9.8668679952
1520621180985910459,0.8383647099,-0.0344238313,0.5768609894,-1.3996815189,-0.1917487754,9.8969538947
1520621180990927459,0.8418816233,-0.0332474452,0.5733462509,-1.4056943575,-0.1186007413,10.0108311978
1520621180995941459,0.8436408994,-0.0300276860,0.5682270658,-1.5031023423,-0.0454455890,10.1046794941
1520621181000956459,0.8428842430,-0.0276772375,0.5609415115,-1.5848769467,-0.0046684458,10.1937586209
1520621181005972459,0.8408750050,-0.0235840731,0.5555654505,-1.5079126131,0.0277023514,10.2778144338
1520621181010988459,0.8363623170,-0.0157184631,0.5556338748,-1.4189226024,0.0252971398,10.3583006751
1520621181016004459,0.8285885034,-0.0052389566,0.5584338333,-1.4105046284,0.0228982033,10.4593276024
1520621181021019459,0.8208214603,0.0084377670,0.5642342505,-1.4321508472,0.0193024679,10.5222975749
1520621181026034459,0.8122991132,0.0212407701,0.5697588528,-1.5055074777,0.0360961471,10.5288059324
1520621181031049459,0.8012630722,0.0328743368,0.5763614135,-1.5475973476,0.0852641825,10.4733847567
1520621181036065459,0.7884730948,0.0512221702,0.5781485462,-1.5391793736,0.1224368800,10.4802394355
1520621181041081459,0.7731786207,0.0759802071,0.5797187080,-1.6293719521,0.1668121002,10.4717768975
1520621181046097459,0.7583874970,0.1030775299,0.5783297163,-1.7243748014,0.1236504441,10.5796609370
1520621181051111459,0.7415829169,0.1331112200,0.5683092205,-1.8097571091,0.1260553748,10.6037325364
1520621181056127459,0.7227637710,0.1616944842,0.5555758841,-1.8302007602,0.1284552479,10.6620363814
1520621181061143459,0.7006697858,0.1876685764,0.5374176894,-1.8410238696,0.1524388993,10.7027933785
1520621181066158459,0.6773121321,0.2072266176,0.5211067417,-1.7881108902,0.2087943781,10.7150069806
1520621181071175459,0.6532000526,0.2259080247,0.5056021626,-1.7231722337,0.2411661119,10.7619912375
1520621181076190459,0.6280847969,0.2442896406,0.4930732322,-1.7303876400,0.2447640952,10.8364351729
1520621181081205459,0.6009560298,0.2615100298,0.4786453220,-1.7869083225,0.2567599014,10.9218101258
1520621181086221459,0.5763460572,0.2825172171,0.4650532823,-1.8614675207,0.2999347636,10.9945466682
1520621181091236459,0.5469557771,0.3000288331,0.4503612498,-1.8807086041,0.3934692152,10.9934805967
1520621181096252459,0.5193230520,0.3175462374,0.4337721289,-1.9348241512,0.4989977871,10.9776344071
1520621181101266459,0.4894248542,0.3324410232,0.4168966549,-1.9480523961,0.5685489619,10.9962896443
1520621181106282459,0.4602698150,0.3382980851,0.4018446863,-1.9781165889,0.5469667758,11.0628455242
1520621181111298459,0.4311019795,0.3371728447,0.3826811753,-1.9781165889,0.5853392694,11.0976724239
1520621181116314459,0.4029441300,0.3377882926,0.3665051407,-1.9456472606,0.6057221277,11.1089579482
1520621181121329459,0.3725297778,0.3404345334,0.3533248731,-1.9456472606,0.5973281448,11.0741018149
1520621181126345459,0.3406108042,0.3468747381,0.3377413929,-1.9624832086,0.5481646987,11.0859350682
1520621181131360459,0.3081924007,0.3556458222,0.3221766308,-1.9336215835,0.4702183233,11.0717844264
1520621181136376459,0.2737677347,0.3646951198,0.3112171058,-1.8650752239,0.3730826104,11.0991034096
1520621181141392459,0.2395945361,0.3711096718,0.3048363865,-1.7628569683,0.2639528708,11.2062942774
1520621181146407459,0.2051691056,0.3734294449,0.3041064746,-1.6618412804,0.2051871226,11.2239626536
1520621181151422459,0.1709919317,0.3710762375,0.3073987150,-1.6041180301,0.2147757503,11.1931757133
1520621181156437459,0.1375620483,0.3614277859,0.3146921666,-1.6245616813,0.2243704659,11.1863924809
1520621181161454459,0.1058879204,0.3520837913,0.3173852940,-1.6293719521,0.3071115297,11.1840343288
1520621181166470459,0.0772317034,0.3418551697,0.3243948857,-1.6606387127,0.3814606712,11.1470775547
1520621181171485459,0.0515875125,0.3304687474,0.3289550714,-1.6870952023,0.4797922464,11.0821591186
1520621181176500459,0.0271991650,0.3220119596,0.3278536905,-1.7448184526,0.5589400100,11.0710223454
1520621181181515459,0.0063200783,0.3100737761,0.3215787264,-1.8133648122,0.5793307358,11.1100204054
1520621181186531459,-0.0140690306,0.2914456003,0.3109229636,-1.8722906301,0.5973224315,11.1547378833
1520621181191548459,-0.0301895249,0.2740013902,0.2940456032,-1.7712749422,0.5793274577,11.2386087073
1520621181196562459,-0.0460568309,0.2571364055,0.2785249518,-1.6979183118,0.5469449530,11.3390327950
1520621181201578459,-0.0644405986,0.2385257712,0.2616428996,-1.6510181710,0.4989756834,11.4188110042
1520621181206594459,-0.0800557275,0.2216579712,0.2472039650,-1.6209539781,0.4486094441,11.4778368318
1520621181211609459,-0.0923902972,0.2117708396,0.2379526891,-1.6486130355,0.4270270706,11.4734785203
1520621181216624459,-0.1067388134,0.2021874167,0.2238375439,-1.7412107494,0.4090471761,11.5104238124
1520621181221641459,-0.1195719663,0.1993115276,0.2078769081,-1.7748826454,0.3742747263,11.4910290176
1520621181226656459,-0.1306349875,0.2034244574,0.1938601805,-1.8326058956,0.4174482772,11.4915487640
1520621181231670459,-0.1406929075,0.2051965067,0.1836114439,-1.8061494059,0.4666109741,11.4877568780
1520621181236687459,-0.1502476143,0.2072594090,0.1736345428,-1.7484261557,0.5325592017,11.4185642284
1520621181241703459,-0.1552789892,0.2081534464,0.1655341697,-1.6786772283,0.6248875820,11.3364452192
1520621181246718459,-0.1600602611,0.2052464717,0.1622742558,-1.6486130355,0.7711803722,11.2686055840
1520621181251733459,-0.1630889138,0.1956296008,0.1622064947,-1.6882977701,0.8299413437,11.2666102654
1520621181256749459,-0.1638564063,0.1851372772,0.1629395015,-1.7303876400,0.8635205536,11.2855815041
1520621181261765459,-0.1643778768,0.1717355773,0.1620265353,-1.7436158848,0.8803095498,11.3008017604
1520621181266780459,-0.1654099897,0.1548479926,0.1570296371,-1.8109596768,0.8791156544,11.2828641096
1520621181271796459,-0.1629234328,0.1391309666,0.1506823677,-1.8434290050,0.8539362343,11.2936639978
1520621181276811459,-0.1616934485,0.1269260882,0.1384120992,-1.8350110310,0.8767192467,11.2877491252
1520621181281825459,-0.1592077619,0.1141389329,0.1261350509,-1.7869083225,0.8887069046,11.3151606845
1520621181286843459,-0.1559541908,0.1106720073,0.1155510165,-1.7592492651,0.9018952950,11.3102300296
1520621181291858459,-0.1531984658,0.1107014992,0.1049945926,-1.7436158848,0.8491318988,11.3368586258
1520621181296873459,-0.1496909966,0.1104457293,0.0922701783,-1.6858926346,0.8491274031,11.3583775182
1520621181301888459,-0.1474377831,0.1098893414,0.0827924252,-1.6450053324,0.9222717845,11.3311789056
1520621181306904459,-0.1466928447,0.1096266610,0.0722375120,-1.6882977701,1.0098124072,11.2850291677
1520621181311919459,-0.1444421362,0.1082004902,0.0611298144,-1.6762720929,1.0589762280,11.1744604986
1520621181316934459,-0.1439432590,0.1126035060,0.0492582078,-1.7171593952,1.1081441698,11.1329733453
1520621181321951459,-0.1426859572,0.1190406814,0.0395651298,-1.7532364266,1.1740997028,11.0949094328
1520621181326966459,-0.1399210780,0.1269426544,0.0271749079,-1.8085545413,1.1872945559,11.0268685094
1520621181331981459,-0.1348985435,0.1369077867,0.0064091244,-1.8867214427,1.2184782948,10.9904103287
1520621181336997459,-0.1308837054,0.1474662206,-0.0184085345,-2.0009653754,1.2472665626,10.9612785021
1520621181342013459,-0.1246044023,0.1615287108,-0.0456386300,-2.0238141620,1.3144202059,10.9172739449
1520621181347029459,-0.1208376052,0.1752959183,-0.0717840978,-2.0310295682,1.3599881039,10.8591925427
1520621181352043459,-0.1168211794,0.1884833688,-0.0990166620,-1.9264061772,1.3419928492,10.8337867198
1520621181357059459,-0.1118052389,0.1955433970,-0.1230512271,-1.8482392759,1.2784323188,10.8807357682
1520621181362075459,-0.1075415288,0.2017195065,-0.1435739647,-1.7255773692,1.2184657443,10.8761138876
1520621181367091459,-0.1060464340,0.1985425479,-0.1538819630,-1.6197514104,1.2052669576,10.8320973790
1520621181372106459,-0.1045519156,0.1933186132,-0.1615000640,-1.4994946391,1.2244438384,10.7542066630
1520621181377121459,-0.1017923800,0.1898230818,-0.1615318750,-1.3960738158,1.2855919452,10.6845738985
1520621181382136459,-0.1030560093,0.1816507110,-0.1567219616,-1.4056943575,1.2520167626,10.7428074782
1520621181387152459,-0.1043232101,0.1679289225,-0.1470844608,-1.3876558418,1.2268334089,10.7380078827
1520621181392169459,-0.1033397653,0.1457564118,-0.1369745381,-1.2830324508,1.2100372945,10.7126008905
1520621181397184459,-0.1038616084,0.1244530935,-0.1252318705,-1.2517656902,1.1800563488,10.6670021783
1520621181402198459,-0.1046287638,0.1086910817,-0.1153403187,-1.2734119091,1.1752614729,10.5858674698
1520621181407215459,-0.1066529425,0.0920522387,-0.1046414650,-1.2710067737,1.2112354983,10.5288639258
1520621181412231459,-0.1049020013,0.0818355303,-0.0976883467,-1.3227171853,1.1596764875,10.5096610776
1520621181417246459,-0.1028987929,0.0724938023,-0.0909995719,-1.3395531333,1.1141104627,10.4552486174
1520621181422261459,-0.0988826338,0.0681202390,-0.0894171103,-1.3816430032,1.0889317919,10.3685220539
1520621181427276459,-0.0936030258,0.0701634552,-0.0899524417,-1.4357585503,1.0553600747,10.3191093330
1520621181432292459,-0.0890726920,0.0765815144,-0.0920763020,-1.4297457118,1.0469656234,10.3306804326
1520621181437308459,-0.0805264971,0.0821393787,-0.0988135794,-1.4345559826,1.0649531044,10.3283854248
1520621181442324459,-0.0714801665,0.0865348155,-0.1066428661,-1.4345559826,1.0877367725,10.3527682304
1520621181447339459,-0.0619282079,0.0912130926,-0.1112243125,-1.3756301647,1.0901304640,10.3394087605
1520621181452353459,-0.0511215114,0.0958976894,-0.1179724596,-1.3359454302,1.1201058838,10.3366689722
1520621181457371459,-0.0428328605,0.0976710985,-0.1260908999,-1.2758170445,1.1272960433,10.3674545901
1520621181462386459,-0.0297664622,0.0979727017,-0.1280067677,-1.1856244660,1.1656615124,10.3851335953
1520621181467401459,-0.0219857408,0.0927388451,-0.1310372565,-1.0353035019,1.2387973707,10.3266540798
1520621181472417459,-0.0099305753,0.0848645338,-0.1267909481,-0.9078313243,1.2915496214,10.2974704380
1520621181477433459,0.0043922112,0.0784349196,-0.1176678988,-0.8777671315,1.3646948457,10.3505651038
1520621181482447459,0.0169528245,0.0690878571,-0.1074816296,-0.8465003710,1.4126580275,10.2653774901
1520621181487464459,0.0307755656,0.0646984660,-0.0986126311,-0.8525132095,1.4486327085,10.2537794956
1520621181492479459,0.0418342038,0.0635270619,-0.0948544168,-0.9330852463,1.4906088985,10.2928735580
1520621181497494459,0.0531415886,0.0603153361,-0.0908416848,-0.9282749755,1.4954050856,10.3183892275
1520621181502509459,0.0662050819,0.0579922933,-0.0919659227,-0.8777671315,1.4366432711,10.2923877457
1520621181507526459,0.0772574749,0.0530365325,-0.0895893379,-0.8164361782,1.4486298987,10.2964276703
1520621181512542459,0.0878074858,0.0466163679,-0.0845174761,-0.7935873916,1.4390349958,10.2311345675
1520621181517556459,0.0955962872,0.0416484007,-0.0780766355,-0.7539026571,1.4066551136,10.1564026597
1520621181522572459,0.1026355045,0.0401782093,-0.0721488095,-0.7791565791,1.4054579400,10.1461903396
1520621181527587459,0.1081681207,0.0410450593,-0.0686353115,-0.8657414544,1.3982698410,10.1586615593
1520621181532603459,0.1091788595,0.0451248365,-0.0686060552,-0.9030210535,1.3886796210,10.1718173542
1520621181537619459,0.1101883320,0.0518431000,-0.0745088008,-0.9559340329,1.3790906187,10.1862874589
1520621181542634459,0.1094368270,0.0594450258,-0.0841892527,-0.9787828194,1.3671009940,10.1690893890
1520621181547650459,0.1081803956,0.0664690847,-0.0957670385,-0.9234647046,1.3347198942,10.1220967704
1520621181552664459,0.1051686988,0.0758213454,-0.1065121350,-0.9090338921,1.3646972809,10.0684684544
1520621181557681459,0.0998887184,0.0822676158,-0.1205218125,-0.9390980849,1.3323228309,10.0118475992
1520621181562697459,0.0926051218,0.0933737942,-0.1339510951,-0.9078313243,1.2999436044,10.0069262641
1520621181567712459,0.0840689436,0.1062226885,-0.1454708842,-0.8669440221,1.2555722242,10.0460844521
1520621181572727459,0.0767827909,0.1138249682,-0.1562213849,-0.7563077925,1.2591610288,10.0705712459
1520621181577743459,0.0677359155,0.1190903835,-0.1650925819,-0.6673177818,1.2639506597,10.0638896746
1520621181582757459,0.0591863099,0.1188124054,-0.1713014920,-0.5939611513,1.2951225974,10.0143352173
1520621181587774459,0.0508882658,0.1182409559,-0.1767014542,-0.5181993853,1.3538745776,9.9391632880
1520621181592790459,0.0415867826,0.1176632852,-0.1799351824,-0.3883220723,1.3550636027,9.9704380033
1520621181597804459,0.0315288038,0.1138742619,-0.1810275971,-0.3005346293,1.3550567655,9.9719078221
1520621181602820459,0.0214709975,0.1089138729,-0.1799645371,-0.1538213683,1.3550453390,9.9472369261
1520621181607836459,0.0109104092,0.1007342171,-0.1737846255,-0.0119183782,1.3310514787,9.9191498053
1520621181612851459,-0.0009062381,0.0910891337,-0.1646374908,0.0999204191,1.3214496449,9.8436933767
1520621181617868459,-0.0152386533,0.0764764169,-0.1506536553,0.1925181330,1.2530914290,9.7894001178
1520621181622883459,-0.0268049779,0.0630295929,-0.1363955154,0.2827107115,1.1919282429,9.7397718288
1520621181627898459,-0.0403826224,0.0469507792,-0.1189070988,0.3079646335,1.1391640974,9.6919295714
1520621181632912459,-0.0534515573,0.0340715649,-0.0992307946,0.3801186962,1.0516212269,9.6355297200
1520621181637930459,-0.0675365940,0.0147887814,-0.0823069903,0.3272057169,1.0012614501,9.5198794593
1520621181642945459,-0.0831302980,-0.0030282005,-0.0688863668,0.2694824666,0.9700882948,9.4774723785
1520621181647960459,-0.0997257160,-0.0161739543,-0.0589454038,0.2105566487,0.9341186714,9.4838917262
1520621181652975459,-0.1140501570,-0.0208613863,-0.0516496307,0.1672642110,0.8573770561,9.4669557867
1520621181657991459,-0.1261067025,-0.0200072557,-0.0459390950,0.1359974505,0.7854310659,9.4289795280
1520621181663007459,-0.1414208454,-0.0106969693,-0.0428634813,0.0506151429,0.7326755371,9.4589156368
1520621181668022459,-0.1514573050,0.0032972047,-0.0470668386,0.0049175698,0.7003023047,9.4442841297
1520621181673038459,-0.1632528565,0.0172906895,-0.0512669288,-0.0383748679,0.7170936424,9.4435269970
1520621181678053459,-0.1763113590,0.0304270107,-0.0619644562,-0.0203363522,0.6907111482,9.4887007609
1520621181683068459,-0.1858387915,0.0514248083,-0.0699030354,0.0951101483,0.7098884036,9.5224226846
1520621181688084459,-0.1941136464,0.0692164115,-0.0773273105,0.2213797581,0.7374587991,9.4281952426
1520621181693100459,-0.1988726581,0.0820412875,-0.0793849941,0.3368262586,0.7182635609,9.3166865909
1520621181698116459,-0.2046412718,0.0890264243,-0.0771565383,0.4594881653,0.6738858120,9.2795094781
1520621181703129459,-0.2061385502,0.0966011028,-0.0768253918,0.5472756083,0.5527657920,9.2113687629
1520621181708146459,-0.2071320039,0.1032938119,-0.0735258432,0.6025937231,0.4220551775,9.1830663334
1520621181713161459,-0.2078774989,0.1088269089,-0.0724000208,0.6410758899,0.3201252444,9.1665211501
1520621181718178459,-0.2103761032,0.1184372431,-0.0706987164,0.6795580568,0.2121996092,9.1860082761
1520621181723194459,-0.2108596908,0.1338869820,-0.0730148725,0.6386707545,0.0970853130,9.1597891936
1520621181728210459,-0.2098434007,0.1449730997,-0.0778020883,0.5665166917,0.0479261752,9.2244573574
1520621181733223459,-0.2085794185,0.1537296964,-0.0831486473,0.5544910146,0.0155503204,9.1757959340
1520621181738240459,-0.2065643037,0.1633738538,-0.0933597633,0.5941757491,0.0359326168,9.1498226214
1520621181743255459,-0.1980114245,0.1727146179,-0.0981743193,0.5785423689,0.0203450089,9.1232606776
1520621181748271459,-0.1904709542,0.1773957495,-0.1041047613,0.5292370926,0.0299419723,9.0970019192
1520621181753286459,-0.1791555873,0.1870362655,-0.1116276871,0.4895523581,0.0503304503,9.0636661327
1520621181758302459,-0.1658296063,0.1981403192,-0.1213075985,0.5292370926,0.0347385340,9.0888622342
1520621181763318459,-0.1512360521,0.2144766749,-0.1260800018,0.5965808846,0.0683092209,9.0567961228
1520621181768333459,-0.1346250231,0.2363515811,-0.1313549920,0.6037962908,0.0910923270,9.0415958036
1520621181773348459,-0.1165114819,0.2538541249,-0.1358544912,0.6458861608,0.1114744361,9.0981113016
1520621181778363459,-0.0928722675,0.2701976671,-0.1419964260,0.5448704729,0.0886986355,9.0886574482
1520621181783379459,-0.0715015524,0.2850994262,-0.1540972855,0.4943626290,0.0383386714,9.1310353552
1520621181788396459,-0.0488778636,0.2970863753,-0.1656816176,0.5015780352,-0.0072292266,9.1077666806
1520621181793410459,-0.0249983786,0.3108323219,-0.1810425874,0.5027806029,-0.0408052522,9.0798962622
1520621181798425459,0.0011446386,0.3239876444,-0.1931656531,0.4991728998,-0.0288135669,9.0404067895
1520621181803442459,0.0265268122,0.3336533416,-0.2080194546,0.4823369518,0.0191533612,9.0300645912
1520621181808457459,0.0514048907,0.3415676209,-0.2218034776,0.5196165509,0.0922980236,8.9668746312
1520621181813473459,0.0770374771,0.3483093732,-0.2328923341,0.5220216864,0.1294711894,8.9575178199
1520621181818488459,0.1031697523,0.3509631978,-0.2407666965,0.5388576343,0.0970930867,8.9899255520
1520621181823503459,0.1290426290,0.3460336419,-0.2459929335,0.6001885877,0.0695080803,9.0381655350
1520621181828519459,0.1564129214,0.3355778404,-0.2547813061,0.6795580568,0.0335276861,9.1245888780
1520621181833534459,0.1845400467,0.3230637033,-0.2565524471,0.7144325204,0.0551094976,9.1497955503
1520621181838551459,0.2083862043,0.3038453200,-0.2580962390,0.7216479267,0.0910831483,9.1717709749
1520621181843566459,0.2352418319,0.2799652372,-0.2594106549,0.7168376559,0.0467153273,9.2299682584
1520621181848581459,0.2618515709,0.2595794850,-0.2598862895,0.7096222496,0.0263305020,9.2451662389
1520621181853597459,0.2877103185,0.2418180835,-0.2611521537,0.7180402236,-0.0240340514,9.3148620530
1520621181858612459,0.3148201069,0.2208555866,-0.2637975351,0.5905680460,-0.0911759871,9.3440597269
1520621181863628459,0.3411709454,0.1984460697,-0.2702402742,0.4739189778,-0.1115522893,9.3405664203
1520621181868643459,0.3634914212,0.1725543887,-0.2826542325,0.3921443734,-0.0911605332,9.4110711226
1520621181873659459,0.3825406214,0.1466759965,-0.3004730413,0.3789161285,-0.0431938860,9.4146395365
1520621181878675459,0.3990864304,0.1301311225,-0.3220036866,0.3765109931,-0.0216091711,9.4251011941
1520621181883689459,0.4151366319,0.1167825403,-0.3402623939,0.3488519357,0.0155663362,9.4671713433
1520621181888706459,0.4271660130,0.1051887027,-0.3614762999,0.3801186962,0.0743217818,9.4970254570
1520621181893722459,0.4389419351,0.0903822525,-0.3800087341,0.4450573527,0.1162866390,9.5777025339
1520621181898737459,0.4451948185,0.0767260627,-0.3936521820,0.5508833115,0.2050147882,9.5789102457
1520621181903751459,0.4481768104,0.0589841105,-0.4054268644,0.5941757491,0.2745615610,9.5528538750
1520621181908768459,0.4521648680,0.0383126814,-0.4112736349,0.7048119787,0.2985357528,9.5087542967
1520621181913783459,0.4523858542,0.0161682842,-0.4117136020,0.7673454998,0.3369033760,9.5487832533
1520621181918798459,0.4465810708,-0.0054110039,-0.4064564577,0.7769660415,0.3596862948,9.5742345624
1520621181923814459,0.4412800298,-0.0258231001,-0.4017324464,0.7108248173,0.3249163738,9.5981551304
1520621181928830459,0.4329662608,-0.0447823689,-0.3959095354,0.5917706137,0.2817565909,9.6191124745
1520621181933845459,0.4223883012,-0.0631488283,-0.3941361661,0.5484781760,0.1966209926,9.7056155322
1520621181938861459,0.4088023260,-0.0748095260,-0.3941998865,0.5412627698,0.1798335886,9.7266207245
1520621181943877459,0.3927062596,-0.0867735192,-0.3902029742,0.5544910146,0.1234729585,9.7486276629
1520621181948892459,0.3740988750,-0.0981586417,-0.3851147650,0.5737320980,0.1642422343,9.7146984498
1520621181953907459,0.3557413779,-0.1118805693,-0.3778804400,0.6567092702,0.2181970908,9.6011102171
1520621181958922459,0.3361390421,-0.1183242036,-0.3684238371,0.8515252397,0.3452908028,9.3678234011
1520621181963939459,0.3241024083,-0.1096332848,-0.3512903504,0.8394995626,0.3872616542,9.0982821274
1520621181968954459,0.3138310331,-0.0936446803,-0.3387038339,0.4354368110,0.2637816603,9.0360932629
