#timestamp [ns],w_RS_S_x [rad s^-1],w_RS_S_y [rad s^-1],w_RS_S_z [rad s^-1],a_RS_S_x [m s^-2],a_RS_S_y [m s^-2],a_RS_S_z [m s^-2]
1520531124153717567,-0.3594956053,0.0297280333,-0.0451253615,0.8539303751,0.9136831762,10.3899324039
1520531124158732567,-0.3597696897,-0.0018078813,-0.0207453114,0.9453255213,0.9856244834,10.3087847264
1520531124163746567,-0.3512484131,-0.0371451028,0.0098120588,1.0415309384,1.0012058161,10.2090508844
1520531124168762567,-0.3397130521,-0.0756958422,0.0438564711,1.1437491940,1.0071935571,10.1789965090
1520531124173778567,-0.3239009105,-0.1133824091,0.0822283526,1.0667848603,0.9820176025,10.1146901273
1520531124178794567,-0.3015568458,-0.1519383845,0.1197697924,1.0246949904,0.9160681573,10.0919212389
1520531124183810567,-0.2812254494,-0.1884387020,0.1511079720,0.8707663231,0.7637893120,10.0296500747
1520531124188826567,-0.2578705401,-0.2161831904,0.1776374173,0.7312684684,0.6462844151,9.9881231302
1520531124193841567,-0.2317467135,-0.2366245003,0.1977242043,0.6013911554,0.5419693135,9.9232468034
1520531124198857567,-0.2061184318,-0.2468449672,0.2095028099,0.4186008630,0.3465236608,9.8717579524
1520531124203873567,-0.1819891730,-0.2450944926,0.2121768020,0.2574567895,0.1906479562,9.8641812924
1520531124208888567,-0.1578574365,-0.2363274796,0.2062466794,0.1275794765,0.0707440291,9.8644002285
1520531124213903567,-0.1382542107,-0.2254963236,0.1906008672,0.0157406792,-0.0443647411,9.8748982069
1520531124218919567,-0.1199115130,-0.2126033867,0.1665860274,0.0109304084,-0.1378973195,9.9226841377
1520531124223934567,-0.1045950453,-0.2064083765,0.1406318361,0.1480231276,-0.1379079968,9.9666733755
1520531124228951567,-0.0887797670,-0.2042983802,0.1168099553,0.2177720550,-0.0731598462,10.0007956566
1520531124233966567,-0.0722047038,-0.2004514362,0.0973287471,0.3187877429,-0.0156089733,9.8951633476
1520531124238982567,-0.0538710349,-0.1977729833,0.0791881091,0.3825238317,0.0359491009,9.7817647345
1520531124243997567,-0.0355317834,-0.1927714670,0.0640412605,0.3945495088,0.0659266749,9.7386191242
1520531124249013567,-0.0134144716,-0.1819429685,0.0497435106,0.3680930191,0.1090977907,9.6795651975
1520531124254029567,0.0074488081,-0.1699523380,0.0365391701,0.4210059985,0.1042971079,9.6314069503
1520531124259044567,0.0260471444,-0.1597079870,0.0222435081,0.4041700505,0.0659259256,9.6316082399
1520531124264059567,0.0438998955,-0.1448083348,0.0104197287,0.3175851752,0.0119713501,9.6569086473
1520531124269075567,0.0600006350,-0.1258350874,0.0005241608,0.2766978729,-0.0228005377,9.6643133938
1520531124274091567,0.0743410047,-0.1086144785,-0.0080287491,0.1744796173,-0.0779530361,9.6665242571
1520531124279106567,0.0841555765,-0.0928511076,-0.0171254651,0.0614382523,-0.1355029724,9.6758156684
1520531124284122567,0.0934723023,-0.0735913193,-0.0261945707,-0.0696416284,-0.1966489251,9.6957454591
1520531124289138567,0.0997734029,-0.0525763925,-0.0382207420,-0.2572421916,-0.2949638288,9.7209102128
1520531124294153567,0.0990369994,-0.0298042605,-0.0545492408,-0.4051580203,-0.4028749468,9.7480223423
1520531124299169567,0.0995541497,-0.0064364838,-0.0754749073,-0.5085788436,-0.4832093004,9.7979173689
1520531124304185567,0.0940304447,0.0081801099,-0.0937506060,-0.5109839791,-0.4652220067,9.9606233926
1520531124309200567,0.0877435087,0.0131683354,-0.1074989862,-0.4977557342,-0.4136599988,10.0278487047
1520531124314215567,0.0819552891,0.0117302728,-0.1153451980,-0.4448427549,-0.3501096773,9.9935695326
1520531124319231567,0.0784281474,0.0114659187,-0.1258921769,-0.4700966768,-0.3189300595,9.9798392085
1520531124324247567,0.0726453419,0.0149857637,-0.1353238716,-0.4700966768,-0.3225274808,9.9194112309
1520531124329262567,0.0671111929,0.0155874912,-0.1431549885,-0.4496530257,-0.3489101623,9.9111029627
1520531124334278567,0.0613272897,0.0191109783,-0.1539394126,-0.4280068069,-0.3716955162,9.8539694354
1520531124339294567,0.0532805601,0.0243935414,-0.1690350321,-0.4171836975,-0.4424456441,9.8295280578
1520531124344309567,0.0432135840,0.0220978622,-0.1836436263,-0.4328170777,-0.5287825370,9.8355751358
1520531124349324567,0.0313780640,0.0154423808,-0.2026110339,-0.3931323432,-0.6235177213,9.9166313235
1520531124354341567,0.0162645801,0.0035538098,-0.2264822159,-0.3221808481,-0.6846794088,10.0333769009
1520531124359355567,-0.0036266159,-0.0100827537,-0.2511695063,-0.2584447593,-0.7122646025,10.0990256331
1520531124364370567,-0.0237765478,-0.0298414045,-0.2748208312,-0.1490110975,-0.6798963341,10.1258203557
1520531124369390567,-0.0449337411,-0.0504716890,-0.2995591420,-0.0720467638,-0.6199453072,10.2017142661
1520531124374403567,-0.0670954750,-0.0725680311,-0.3210601506,0.0710587940,-0.5480080273,10.1619004535
1520531124379418567,-0.0859769163,-0.0888536135,-0.3357591175,0.1901129976,-0.4604800488,10.1525212835
1520531124384434567,-0.1045984378,-0.0996064336,-0.3490635830,0.2851158469,-0.3621579332,10.1212849554
1520531124389450567,-0.1219640454,-0.1138692160,-0.3572566872,0.3248005814,-0.2722254922,10.0836223815
1520531124394464567,-0.1375696360,-0.1269635857,-0.3662558038,0.3500545034,-0.1978807528,10.0321697423
1520531124399481567,-0.1473931228,-0.1432827737,-0.3671737320,0.4077777536,-0.1271359635,10.0164310372
1520531124404497567,-0.1559601194,-0.1610649480,-0.3656701963,0.4137905922,-0.0300060575,9.9697920373
1520531124409512567,-0.1597424648,-0.1765367567,-0.3557708208,0.4137905922,0.0839122827,9.8186022360
1520531124414527567,-0.1569781581,-0.1856093862,-0.3406943002,0.3368262586,0.1750529491,9.6821295032
1520531124419544567,-0.1474174805,-0.1879847975,-0.3228737912,0.2935338209,0.2350133421,9.5918451899
1520531124424557567,-0.1358396026,-0.1889185241,-0.2990938909,0.2514439509,0.2589994286,9.5225028428
1520531124429574567,-0.1192338114,-0.1881005175,-0.2758510784,0.2610644926,0.2506046964,9.4747694856
1520531124434590567,-0.0988614388,-0.1884422016,-0.2542474344,0.2730901698,0.2841796916,9.4978625726
1520531124439606567,-0.0747195015,-0.1908315702,-0.2291492562,0.3320159877,0.3357381405,9.5274544861
1520531124444621567,-0.0513377099,-0.1984690693,-0.2030075097,0.4667035716,0.3956846718,9.5144636133
1520531124449638567,-0.0254495750,-0.2116448037,-0.1758304856,0.5737320980,0.4868110082,9.5749266230
1520531124454652567,0.0006818924,-0.2318187673,-0.1468134609,0.6795580568,0.5659460341,9.6203051599
1520531124459668567,0.0270570451,-0.2584067341,-0.1164930814,0.8178533437,0.6906458672,9.6432424901
1520531124464683567,0.0554417103,-0.2849909996,-0.0872586192,0.8996279482,0.7853715918,9.7097585178
1520531124469699567,0.0850847201,-0.3092393260,-0.0596319814,0.9453255213,0.8717061432,9.7324724123
1520531124474714567,0.1152372393,-0.3267783271,-0.0346606050,0.9753897141,0.8980848910,9.6728847188
1520531124479730567,0.1438935386,-0.3349899719,-0.0109680190,1.0150744487,0.9544414001,9.6550113337
1520531124484746567,0.1753254393,-0.3321155382,0.0082046301,1.0271001258,0.9628344465,9.6409403703
1520531124489762567,0.2022425861,-0.3222467345,0.0263568506,1.0102641778,0.9676323194,9.6073973891
1520531124494776567,0.2261464324,-0.3115086007,0.0458740705,1.0234924227,0.9232630935,9.5945283155
1520531124499792567,0.2472839727,-0.3004721527,0.0624226427,1.0054539070,0.8908877070,9.6319240700
1520531124504808567,0.2679175941,-0.2908950095,0.0797726705,0.9874153913,0.8537157587,9.6367844712
1520531124509824567,0.2832744302,-0.2786872751,0.0933648648,0.9838076881,0.7793693335,9.6078384866
1520531124514839567,0.2976348291,-0.2588988379,0.1051229049,0.9597563339,0.7469944152,9.5685912654
1520531124519855567,0.3062136497,-0.2364727220,0.1104185859,0.9224767348,0.6882394379,9.4957963507
1520531124524870567,0.3122839277,-0.2099645651,0.1143973278,0.8948176774,0.6606613624,9.4391474080
1520531124529886567,0.3130829207,-0.1764535922,0.1141104907,0.8695637554,0.6954384015,9.4695750462
1520531124534901567,0.3118787877,-0.1356500526,0.1106364137,0.8551329428,0.7002360871,9.4743594053
1520531124539918567,0.3054009389,-0.0936895984,0.1096159433,0.8635509168,0.7374087846,9.4986462434
1520531124544932567,0.2933971975,-0.0505694142,0.1099673627,0.8851971357,0.7721821710,9.5158338009
1520531124549949567,0.2808840408,-0.0118172811,0.1092041856,0.8755765940,0.7793777629,9.5844869186
1520531124554965567,0.2613269897,0.0199323106,0.1108356358,0.8948176774,0.7769779835,9.6145177192
1520531124559980567,0.2387492443,0.0461364022,0.1154064529,0.8707663231,0.7529970482,9.6368559422
1520531124564995567,0.2136543707,0.0676700725,0.1226518268,0.8166507760,0.7158279098,9.6374189193
1520531124570011567,0.1820196156,0.0860017805,0.1277205144,0.7986122603,0.6582705743,9.6667042223
1520531124575027567,0.1508900535,0.1060812642,0.1330721530,0.7529146872,0.5887239889,9.7404319052
1520531124580043567,0.1154851102,0.1232430436,0.1392211328,0.6843683276,0.5023912170,9.8388033780
1520531124585058567,0.0783080986,0.1316662402,0.1439539575,0.6386707545,0.4184549464,9.9020857974
1520531124590074567,0.0368495117,0.1360214913,0.1437937672,0.5821500720,0.3177315529,10.0724071769
1520531124595088567,-0.0058719518,0.1345434607,0.1454852701,0.4667035716,0.2601818039,10.1967742497
1520531124600104567,-0.0533787330,0.1278302928,0.1428168909,0.3308134200,0.2601923875,10.3177977484
1520531124605120567,-0.1003872291,0.1176192506,0.1406619930,0.3103697689,0.2290163287,10.4272686689
1520531124610136567,-0.1478956373,0.1100333859,0.1374458527,0.2334054352,0.1942472507,10.4896453329
1520531124615150567,-0.1976664367,0.1027416619,0.1328834066,0.1732770496,0.1894553720,10.4925595510
1520531124620167567,-0.2429051460,0.1018621696,0.1283614673,0.1504282631,0.2218339429,10.4404538970
1520531124625183567,-0.2868861694,0.1033208018,0.1214200660,0.1203640702,0.2602087780,10.3977097782
1520531124630199567,-0.3306173445,0.1041989486,0.1136621141,0.1480231276,0.2386220962,10.3649215793
1520531124635213567,-0.3678128604,0.1056587821,0.1072492031,0.1540359662,0.2997777895,10.3066962200
1520531124640229567,-0.4014857940,0.1100323825,0.1013930806,0.2165694873,0.3141626042,10.2642363426
1520531124645244567,-0.4331574049,0.1059486065,0.0984447597,0.2827107115,0.3117591721,10.2252441527
1520531124650262567,-0.4587993415,0.1001159725,0.0965540825,0.3644853160,0.2997613990,10.2279463341
1520531124655276567,-0.4826861890,0.0916630238,0.0940990386,0.4366393787,0.3093489028,10.2109646607
1520531124660292567,-0.5018021891,0.0794195763,0.0932295023,0.4859446550,0.3321287308,10.0919238526
1520531124665307567,-0.5156428072,0.0651355910,0.0934167868,0.5653141240,0.3369191109,9.9935265494
1520531124670324567,-0.5242022806,0.0528897228,0.0949625612,0.6663298119,0.3261189796,9.9205009235
1520531124675339567,-0.5274766965,0.0444251798,0.0997739853,0.7132299527,0.3237170461,9.8166159531
1520531124680354567,-0.5259742353,0.0374187017,0.1048582029,0.6927863016,0.2937401277,9.7122512166
1520531124685370567,-0.5184410413,0.0304160434,0.1093901274,0.6506964316,0.2589683335,9.6301825837
1520531124690386567,-0.5063813478,0.0245755963,0.1158163645,0.6735452182,0.2361828859,9.5428216085
1520531124695401567,-0.4945705733,0.0219468365,0.1198326091,0.6458861608,0.1690331764,9.5129405650
1520531124700417567,-0.4797389792,0.0225215743,0.1249498907,0.5809475043,0.1090812129,9.4892260820
1520531124705433567,-0.4596229784,0.0298067796,0.1276735889,0.5520858792,0.0934946352,9.3919021126
1520531124710448567,-0.4384971170,0.0411746758,0.1293443598,0.5039831707,0.0611215902,9.3540511365
1520531124715462567,-0.4133536381,0.0516765497,0.1285660809,0.4426522173,0.0215547329,9.2791473255
1520531124720480567,-0.3879652820,0.0581020523,0.1266740284,0.4402470819,-0.0180167138,9.2745607480
1520531124725494567,-0.3583093738,0.0624953644,0.1225941129,0.4222085662,-0.0563878024,9.2863951823
1520531124730510567,-0.3283944711,0.0712537155,0.1207114442,0.3584724774,-0.1403226681,9.3103402831
1520531124735525567,-0.2984807954,0.0808942328,0.1158594398,0.1889104299,-0.2050630449,9.2969459690
1520531124740541567,-0.2645520858,0.0923115846,0.1010031082,0.1143512317,-0.2806030847,9.2570703124
1520531124745556567,-0.2288624300,0.1075285509,0.0821142212,-0.0010952688,-0.3945124335,9.2106571830
1520531124750574567,-0.1954417203,0.1183782337,0.0615729131,-0.0696416284,-0.5252134011,9.2288839885
1520531124755589567,-0.1547452587,0.1237090344,0.0355649134,-0.1165417692,-0.6031538759,9.2642808113
1520531124760605567,-0.1130517837,0.1235061082,0.0087011706,-0.0407800033,-0.6463288317,9.2833419362
1520531124765618567,-0.0756350149,0.1174628912,-0.0141409112,0.0157406792,-0.6427358124,9.3234633290
1520531124770634567,-0.0324455043,0.1047135387,-0.0346099456,0.0325766272,-0.6127586131,9.2860816181
1520531124775651567,0.0104907669,0.0887508452,-0.0521269623,0.1095409608,-0.5600024287,9.2748217480
1520531124780666567,0.0559446446,0.0757007962,-0.0688147777,0.1828975913,-0.4592803464,9.2344966206
1520531124785680567,0.0993973995,0.0637900026,-0.0760208606,0.3175851752,-0.3393767940,9.2133122732
1520531124790698567,0.1428592890,0.0524342976,-0.0729417533,0.5412627698,-0.1595231512,9.2400133306
1520531124795712567,0.1825602110,0.0398780699,-0.0574194263,0.6795580568,0.0179388606,9.2721963616
1520531124800729567,0.2200023761,0.0237988467,-0.0324504694,0.7156350881,0.1102698634,9.2903494741
1520531124805743567,0.2511574952,0.0045126608,-0.0077648443,0.7288633330,0.2337802967,9.3586667698
1520531124810760567,0.2830711723,-0.0121544113,0.0182921179,0.6927863016,0.2589650554,9.3648040851
1520531124815774567,0.3102155817,-0.0253289249,0.0451962625,0.6603169733,0.2517727417,9.3918564487
1520531124820792567,0.3343503055,-0.0323775322,0.0691766878,0.6482912962,0.2313882911,9.4117498252
1520531124825806567,0.3577285884,-0.0385398979,0.0885659022,0.6518989994,0.2050069208,9.4152268674
1520531124830822567,0.3780908071,-0.0429456684,0.1044569592,0.6314553482,0.1954153896,9.2957343808
1520531124835838567,0.3951944601,-0.0397701651,0.1179769708,0.5965808846,0.2062103696,9.2832797198
1520531124840854567,0.4097872380,-0.0345537695,0.1307055735,0.6062014263,0.1510491608,9.2169976636
1520531124845868567,0.4198582679,-0.0270029708,0.1415665406,0.6001885877,0.1450539270,9.1694141335
1520531124850884567,0.4276691529,-0.0165312002,0.1494779342,0.5845552074,0.1222714765,9.1916692518
1520531124855900567,0.4359826827,-0.0048885956,0.1555034655,0.5472756083,0.0815036056,9.2710976549
1520531124860916567,0.4370039281,0.0038394939,0.1607086632,0.5003754675,-0.0096274138,9.3460202350
1520531124865930567,0.4352504229,0.0076253467,0.1612819221,0.4246137016,-0.0431974451,9.4815990937
1520531124870947567,0.4319852161,0.0111308791,0.1575270240,0.3572699097,-0.0539844640,9.6159116557
1520531124875962567,0.4236895046,0.0126005782,0.1516015316,0.3079646335,-0.0995479600,9.8012168866
1520531124880978567,0.4113642615,0.0094145623,0.1426719325,0.2490388155,-0.1475089876,9.9308351869
1520531124885993567,0.3960178969,0.0050749386,0.1288692157,0.1853027267,-0.1499023045,10.0523208648
1520531124891010567,0.3781530907,-0.0024672573,0.1136939826,0.1311871796,-0.1283135621,10.2201752736
1520531124896024567,0.3580217141,-0.0126284295,0.0968796670,0.1035281222,-0.1498959356,10.4052464267
1520531124901039567,0.3315994653,-0.0283254553,0.0789525972,0.0722613617,-0.1462960792,10.5635988280
1520531124906056567,0.3046727253,-0.0460652835,0.0620930828,0.1095409608,-0.1391041401,10.6190118650
1520531124911071567,0.2782551379,-0.0591434908,0.0455387503,0.1396051536,-0.1115262518,10.5559365702
1520531124916086567,0.2493290041,-0.0696031356,0.0300912763,0.1347948828,-0.0467722943,10.4722458814
1520531124921103567,0.2216619557,-0.0797781879,0.0173491508,0.1841001590,0.0023886230,10.4182594093
1520531124926118567,0.1962684247,-0.0838449339,0.0089782439,0.2177720550,0.0323645111,10.3121473344
1520531124931135567,0.1698718977,-0.0864558796,0.0008908652,0.2057463779,0.0935216093,10.1832067698
1520531124936150567,0.1472509259,-0.0841096261,-0.0079773596,0.2382157061,0.1378872761,10.1049838228
1520531124941165567,0.1228772330,-0.0803217078,-0.0114202840,0.2586593572,0.1031106116,10.0432251181
1520531124946180567,0.0985117219,-0.0709996688,-0.0140093321,0.2803055761,0.0995115045,10.0197750560
1520531124951196567,0.0738937281,-0.0610884034,-0.0190283803,0.2803055761,0.1127020491,9.9709521472
1520531124956212567,0.0525381772,-0.0537954050,-0.0251556873,0.3199903106,0.0647333414,9.9322619034
1520531124961228567,0.0286728919,-0.0447579977,-0.0301828050,0.3175851752,0.0659326692,9.9183384167
1520531124966242567,0.0063166307,-0.0351386875,-0.0346671850,0.2851158469,0.0575412150,9.8989061914
1520531124971259567,-0.0155403300,-0.0269717325,-0.0407868893,0.3127749043,0.0503442183,9.8312396418
1520531124976275567,-0.0348792881,-0.0156007484,-0.0460751692,0.3187877429,0.0395514862,9.7998137538
1520531124981290567,-0.0542129734,-0.0027837681,-0.0472941453,0.3536622065,0.0551375955,9.7564597794
1520531124986306567,-0.0707819245,0.0129597953,-0.0528247587,0.3680930191,0.0527381908,9.7528352256
1520531124991321567,-0.0850892333,0.0275336078,-0.0564746438,0.3777135608,0.0575340032,9.7422776122
1520531124996336567,-0.0968828481,0.0432768566,-0.0612024873,0.3993597796,0.0395452110,9.7107065745
1520531125001352567,-0.1091810364,0.0590264644,-0.0683643104,0.4426522173,0.0551306647,9.6475142175
1520531125006369567,-0.1187144083,0.0756534941,-0.0763362360,0.4546778944,0.0803116770,9.6636426262
1520531125011384567,-0.1282483134,0.0899407064,-0.0810793954,0.4534753267,0.0899048940,9.7147793105
1520531125016398567,-0.1360284076,0.0998556546,-0.0850475306,0.4655010038,0.1366704340,9.7332109590
1520531125021414567,-0.1385363698,0.1074481501,-0.0914781646,0.5099960092,0.1582514962,9.7397296875
1520531125026430567,-0.1410418349,0.1129834716,-0.0914312588,0.5148062801,0.1954244747,9.8012402474
1520531125031447567,-0.1443115855,0.1086012257,-0.0876708951,0.5340473635,0.2397911718,9.8126311404
1520531125036462567,-0.1428054313,0.1033386842,-0.0809500636,0.5689218272,0.2385893152,9.8308871664
1520531125041478567,-0.1433062844,0.0989422243,-0.0715133700,0.5641115563,0.2553776558,9.7728104182
1520531125046492567,-0.1402863194,0.0945384016,-0.0588366599,0.5785423689,0.3009438679,9.7888955380
1520531125051508567,-0.1345025965,0.0892593230,-0.0453601153,0.5653141240,0.3297242684,9.7820233657
1520531125056525567,-0.1274670840,0.0816547595,-0.0337975102,0.5568961500,0.3585042941,9.7716179414
1520531125061539567,-0.1196743309,0.0766736806,-0.0224868435,0.4149931599,0.2985583248,9.8125704995
1520531125066554567,-0.1078653599,0.0728801111,-0.0187500370,0.3620801805,0.2074277737,9.7655264896
1520531125071570567,-0.0983161808,0.0725917395,-0.0184994497,0.3801186962,0.2362057390,9.7548635540
1520531125076587567,-0.0877570940,0.0775566959,-0.0211867186,0.3223954460,0.2386085155,9.7124237317
1520531125081603567,-0.0746825530,0.0851487397,-0.0252113764,0.2490388155,0.1978434544,9.6922589065
1520531125086618567,-0.0613587361,0.0915768008,-0.0297864851,0.2310002998,0.1702646295,9.7157042563
1520531125091633567,-0.0465345986,0.0951032622,-0.0387153593,0.2863184146,0.1522732148,9.7140212198
1520531125096647567,-0.0352284721,0.0974569797,-0.0454822246,0.3741058577,0.1654569223,9.8014768285
1520531125101664567,-0.0244358617,0.0890168895,-0.0477311303,0.3416365294,0.1714551532,9.8447863446
1520531125106680567,-0.0151489311,0.0826180855,-0.0507733118,0.3873341025,0.1894387005,9.7966761103
1520531125111695567,-0.0041038340,0.0750522472,-0.0530160150,0.4282214047,0.1918337969,9.8555451413
1520531125116710567,0.0034305518,0.0703872210,-0.0509012189,0.4570830299,0.2158143575,9.8041064992
1520531125121727567,0.0132312022,0.0689275823,-0.0484956235,0.5208191186,0.2182076744,9.8441588309
1520531125126742567,0.0215237460,0.0651268070,-0.0425879158,0.5448704729,0.2805611032,9.8066753176
1520531125131758567,0.0285599720,0.0616176523,-0.0369461972,0.5845552074,0.3297227698,9.8190246914
1520531125136773567,0.0366087755,0.0601332862,-0.0256093202,0.5893654783,0.3848828546,9.7596547399
1520531125141789567,0.0413931131,0.0601031059,-0.0137141685,0.5881629106,0.4328485652,9.7270796406
1520531125146803567,0.0444125136,0.0580427427,-0.0056189539,0.5388576343,0.3920816309,9.7275993055
1520531125151821567,0.0479376794,0.0583136527,0.0024931120,0.5111985769,0.3681009766,9.7627562272
1520531125156836567,0.0512079436,0.0577183234,0.0076229704,0.4390445142,0.3273358218,9.8250919177
1520531125161852567,0.0554729787,0.0504259143,0.0110765556,0.3921443734,0.2541919087,9.8523490555
1520531125166865567,0.0554661571,0.0445945816,0.0123848234,0.3115723366,0.1978385840,9.8345939500
1520531125171884567,0.0574702986,0.0393475340,0.0134232577,0.2670773312,0.1810540835,9.8385298397
1520531125176899567,0.0599798605,0.0387744907,0.0101675935,0.2610644926,0.1007121435,9.7422087625
1520531125181914567,0.0627468801,0.0425715853,0.0072153548,0.2069489456,0.0647421455,9.7020955318
1520531125186929567,0.0657623015,0.0466710894,0.0002066840,0.1408077214,0.0323705053,9.6644201316
1520531125191945567,0.0680297226,0.0554339074,-0.0073061090,0.1251743411,-0.0155938940,9.6506733434
1520531125196960567,0.0700454921,0.0636124010,-0.0142817897,0.0927050128,-0.0455698758,9.5929114157
1520531125201976567,0.0718046898,0.0703448000,-0.0253263075,0.0927050128,-0.1031286161,9.5615896573
1520531125206992567,0.0733109617,0.0762044038,-0.0369181197,0.0830844711,-0.1163184115,9.6012090549
1520531125212007567,0.0738032801,0.0744825171,-0.0466720439,0.1347948828,-0.0623611198,9.6343552919
1520531125217022567,0.0737911896,0.0686686667,-0.0518568776,0.1408077214,-0.0095994095,9.6946768013
1520531125222039567,0.0742755769,0.0567286539,-0.0543838706,0.1841001590,0.0503542399,9.6651433534
1520531125227054567,0.0752668704,0.0468234306,-0.0550024142,0.2334054352,0.1151039827,9.7075996281
1520531125232069567,0.0782772579,0.0404024976,-0.0507281884,0.2610644926,0.1534743221,9.7398330237
1520531125237085567,0.0805302322,0.0325294456,-0.0483574992,0.3043569303,0.2182245332,9.7009977468
1520531125242101567,0.0822810441,0.0231912613,-0.0430209871,0.2995466595,0.2649913843,9.6975125309
1520531125247116567,0.0883007723,0.0129871530,-0.0401339916,0.2851158469,0.2877761763,9.7104143577
1520531125252133567,0.0928269582,0.0118088185,-0.0347403670,0.2923312532,0.2865764739,9.7545067669
1520531125257149567,0.0968488764,0.0100504317,-0.0304324388,0.2899261178,0.3081611889,9.7242933861
1520531125262163567,0.1023810064,0.0097481014,-0.0255751036,0.2766978729,0.3225519042,9.7430024130
1520531125267179567,0.1084176277,0.0114885735,-0.0217853239,0.2658747635,0.3489338365,9.7302984495
1520531125272195567,0.1121936180,0.0149808372,-0.0196012806,0.2754953052,0.3417382446,9.7336982569
1520531125277210567,0.1172298425,0.0213881669,-0.0176678859,0.2791030083,0.3177551552,9.7011464978
1520531125282226567,0.1212607384,0.0272101484,-0.0149254328,0.2406208415,0.3381435395,9.6573397106
1520531125287241567,0.1255396401,0.0330431549,-0.0162416349,0.2273925967,0.3309497272,9.6307461713
1520531125292257567,0.1313271697,0.0391666797,-0.0170173224,0.2382157061,0.3069660758,9.6678528191
1520531125297272567,0.1340893085,0.0403456842,-0.0216128443,0.2863184146,0.3081614698,9.6441405685
1520531125302288567,0.1386095276,0.0409433372,-0.0264866252,0.3115723366,0.3405362944,9.6891868043
1520531125307303567,0.1403681411,0.0427018031,-0.0299936504,0.3308134200,0.3645176043,9.7064082960
1520531125312319567,0.1393660664,0.0438618484,-0.0280890699,0.3308134200,0.3717124469,9.7052391360
1520531125317335567,0.1388619712,0.0421104306,-0.0270192914,0.3091672012,0.3597227285,9.7228936797
1520531125322351567,0.1376081586,0.0432718343,-0.0256553360,0.3055594980,0.3597230095,9.7647659772
1520531125327366567,0.1368543052,0.0429786975,-0.0251150671,0.3079646335,0.3693159456,9.7995975310
1520531125332382567,0.1355938083,0.0403572014,-0.0256738330,0.3187877429,0.3885013494,9.7564741498
1520531125337397567,0.1348418838,0.0388868716,-0.0208137222,0.3440416648,0.4160796123,9.7643364565
1520531125342413567,0.1330862145,0.0379967318,-0.0151356605,0.3668904514,0.4496537646,9.7803513342
1520531125347427567,0.1300699581,0.0336073001,-0.0086703046,0.4510701913,0.4712317360,9.7702137806
1520531125352444567,0.1288147223,0.0280413645,0.0021116262,0.4462599204,0.4892192170,9.7365408860
1520531125357460567,0.1258051463,0.0259713541,0.0129235011,0.3921443734,0.5024139764,9.7661083497
1520531125362475567,0.1210317309,0.0218675187,0.0212881684,0.3440416648,0.4916254589,9.7700735079
1520531125367491567,0.1155033684,0.0189376672,0.0264165775,0.3115723366,0.4820348644,9.8459382561
1520531125372507567,0.1102227018,0.0151417734,0.0285618458,0.2514439509,0.4700481431,9.8465352023
1520531125377522567,0.1059461759,0.0110570741,0.0298913863,0.2550516541,0.4388702112,9.8581519295
1520531125382538567,0.0994152173,0.0113378860,0.0328817491,0.2935338209,0.4340706523,9.8798627802
1520531125387554567,0.0906310138,0.0168583628,0.0375396033,0.3007492272,0.4448623542,9.9099977686
1520531125392569567,0.0851055602,0.0180166359,0.0394525848,0.2947363886,0.4532568055,9.9181831162
1520531125397583567,0.0758119453,0.0206325400,0.0405720449,0.2971415240,0.4028927204,9.9286681139
1520531125402600567,0.0632541704,0.0241162188,0.0435980629,0.2622670604,0.4448653513,9.9429123612
1520531125407616567,0.0524524058,0.0246838278,0.0476807666,0.2815081438,0.4556561166,9.9392281243
1520531125412630567,0.0421493263,0.0235084256,0.0498553771,0.2851158469,0.4292747463,9.9705966214
1520531125417647567,0.0328470434,0.0194210288,0.0514647981,0.2718876021,0.3633230532,9.9824111302
1520531125422663567,0.0212817498,0.0138736379,0.0538789418,0.2406208415,0.3513340842,9.9467006925
1520531125427679567,0.0112194625,0.0080500219,0.0508771441,0.2658747635,0.3381415727,9.9313598776
1520531125432693567,0.0016649595,0.0042582817,0.0508659795,0.3163826074,0.3357393581,9.9494649072
1520531125437710567,-0.0078904688,-0.0007011818,0.0516575602,0.3115723366,0.3105577838,9.9332662682
1520531125442725567,-0.0174434742,-0.0027417011,0.0505775505,0.3296108523,0.3309417661,9.9191250861
1520531125447739567,-0.0267475134,-0.0068232705,0.0500226043,0.2863184146,0.3117588911,9.9277001853
1520531125452757567,-0.0355522560,-0.0138206735,0.0502561315,0.2718876021,0.3045651725,9.9011183510
1520531125457772567,-0.0446087756,-0.0190603982,0.0469863672,0.2430259770,0.3189571054,9.9188173996
1520531125462787567,-0.0503915459,-0.0187603517,0.0429411365,0.2851158469,0.2553993849,9.9219561295
1520531125467802567,-0.0549145680,-0.0167144195,0.0399890943,0.2658747635,0.2518034622,9.8384725537
1520531125472817567,-0.0601924511,-0.0140801861,0.0348785312,0.2177720550,0.2709934553,9.8040577279
1520531125477834567,-0.0647106276,-0.0061963653,0.0281833081,0.2261900290,0.2829842040,9.7772347882
1520531125482850567,-0.0667149376,0.0016855263,0.0225656014,0.2682798989,0.2889766280,9.7338199382
1520531125487865567,-0.0667113661,0.0072349441,0.0177380139,0.2442285447,0.3129613096,9.7154363493
1520531125492881567,-0.0707225070,0.0162750303,0.0145678464,0.2394182738,0.2913771567,9.7329363769
1520531125497896567,-0.0702106219,0.0247326629,0.0119259234,0.2358105707,0.2673946292,9.6783741130
1520531125502912567,-0.0689498506,0.0314510247,0.0060227111,0.2297977321,0.2578019741,9.6796041370
1520531125507927567,-0.0689430721,0.0375751988,0.0041755746,0.2694824666,0.2266212323,9.7594362058
1520531125512942567,-0.0666746043,0.0437002590,0.0023242376,0.3019517949,0.2110298780,9.7231089081
1520531125517959567,-0.0649167866,0.0434124774,0.0012365639,0.3416365294,0.2458018595,9.7633637688
1520531125522975567,-0.0636626761,0.0387377055,0.0060684870,0.3704981545,0.2529944542,9.8444259082
1520531125527991567,-0.0654222148,0.0358115161,0.0103782576,0.3584724774,0.2422031270,9.8445534828
1520531125533007567,-0.0676896713,0.0302684966,0.0125045866,0.3464468003,0.2721825741,9.8283712845
1520531125538022567,-0.0669383779,0.0255942562,0.0170668973,0.3055594980,0.2625926352,9.8287786112
1520531125543037567,-0.0684497346,0.0229712047,0.0170496899,0.3284082846,0.2709848386,9.8192508781
1520531125548052567,-0.0702140131,0.0209388366,0.0140613905,0.3235980137,0.2817774771,9.7716392721
1520531125553068567,-0.0684610332,0.0177401234,0.0118693023,0.3055594980,0.2925711458,9.7799393316
1520531125558084567,-0.0646966943,0.0154170799,0.0094096037,0.3380288263,0.2841746340,9.8098472233
1520531125563098567,-0.0647039039,0.0122213197,0.0058680532,0.3608776128,0.2805754332,9.7747640166
1520531125568114567,-0.0621938207,0.0095976582,0.0066550158,0.3608776128,0.2517960630,9.7980349598
1520531125573131567,-0.0601855353,0.0104835259,0.0025997629,0.2718876021,0.2266210450,9.8058985538
1520531125578146567,-0.0566693276,0.0104914602,0.0001583157,0.2033412424,0.2206306815,9.7891394294
1520531125583160567,-0.0536564663,0.0096235871,-0.0017477755,0.1672642110,0.2038455253,9.7976419596
1520531125588178567,-0.0496373041,0.0116794227,-0.0071505994,0.1973284039,0.2170337285,9.8077957660
1520531125593193567,-0.0483766269,0.0160565103,-0.0092839539,0.2081515133,0.2134354643,9.7960724890
1520531125598208567,-0.0423409661,0.0198490574,-0.0100778929,0.2045438101,0.2362194133,9.8135175460
1520531125603224567,-0.0390695885,0.0251040000,-0.0132904955,0.1756821850,0.2494122058,9.8033263091
1520531125608240567,-0.0373065332,0.0294820129,-0.0156953293,0.1528333985,0.3009770236,9.8000119917
1520531125613254567,-0.0327754937,0.0370685240,-0.0188924809,0.1841001590,0.2673986565,9.7439574919
1520531125618272567,-0.0269912180,0.0414466554,-0.0207636905,0.1865052944,0.2614027671,9.7369670648
1520531125623286567,-0.0217079562,0.0469901280,-0.0226250743,0.2382157061,0.2733901440,9.7782892363
1520531125628303567,-0.0199423486,0.0534085611,-0.0252848925,0.2285951644,0.2685943316,9.7388746597
1520531125633318567,-0.0154187462,0.0548730834,-0.0274465452,0.2670773312,0.2997689854,9.7396318390
1520531125638334567,-0.0106449897,0.0551707092,-0.0290764653,0.3115723366,0.3069603626,9.7740560545
1520531125643348567,-0.0091481935,0.0478903289,-0.0304875722,0.3452442326,0.3345379698,9.8387814795
1520531125648364567,-0.0056423749,0.0379809912,-0.0292169618,0.3320159877,0.2913699448,9.8621952105
1520531125653380567,-0.0041442183,0.0304033989,-0.0284659246,0.3284082846,0.2949676471,9.8784968330
1520531125658396567,-0.0011369946,0.0231148682,-0.0266332812,0.2791030083,0.2625946957,9.8743597366
1520531125663410567,0.0018704094,0.0175819289,-0.0274927582,0.2610644926,0.2398124326,9.8385310673
1520531125668430567,0.0031198664,0.0132152954,-0.0288811676,0.2430259770,0.2434112587,9.8073252484
1520531125673443567,0.0036191239,0.0120557817,-0.0310553605,0.1901129976,0.2254282734,9.7555613330
1520531125678457567,0.0081345875,0.0076933419,-0.0335320209,0.2021386747,0.1942496858,9.7345560941
1520531125683473567,0.0076272854,0.0053671677,-0.0354426934,0.1660616433,0.2194344445,9.6895590755
1520531125688489567,0.0101402776,0.0068316308,-0.0378711582,0.1937207007,0.1738649542,9.6939828699
1520531125693504567,0.0141597887,0.0080082138,-0.0413868301,0.1744796173,0.1306973976,9.6837529514
1520531125698519567,0.0171683414,0.0051057481,-0.0452023042,0.1444154245,0.1426911433,9.6758988767
1520531125703537567,0.0179199092,0.0045283734,-0.0471019718,0.1071358254,0.1151138170,9.7355579700
1520531125708551567,0.0206804601,0.0030783612,-0.0492825884,0.1528333985,0.0707420623,9.7165621401
1520531125713566567,0.0206844668,0.0071628436,-0.0511452864,0.1576436693,0.0323691941,9.7246877464
1520531125718582567,0.0199363725,0.0094848833,-0.0478795508,0.2009361070,0.0419589457,9.7312298734
1520531125723599567,0.0206897829,0.0083159984,-0.0465371139,0.1792898882,0.0791339847,9.7465121863
1520531125728615567,0.0211924668,0.0077305125,-0.0454603099,0.1552385339,0.0839324196,9.7455794661
1520531125733630567,0.0199353963,0.0056830442,-0.0427680789,0.2165694873,0.0947199068,9.7345126886
1520531125738645567,0.0161647652,0.0030510939,-0.0398050810,0.2658747635,0.1774567559,9.7571949760
1520531125743661567,0.0136465392,-0.0016156852,-0.0384832536,0.2718876021,0.2350150279,9.7721881938
1520531125748676567,0.0126473578,-0.0022214295,-0.0300989101,0.2658747635,0.2841802536,9.7594151927
1520531125753691567,0.0076210205,-0.0057345815,-0.0247053348,0.2165694873,0.3501368169,9.7563443545
1520531125758709567,0.0051157240,-0.0028341041,-0.0200791565,0.1901129976,0.4136933199,9.7809449138
1520531125763722567,0.0026145166,0.0021016944,-0.0138141412,0.2201771904,0.4436694890,9.7922444934
1520531125768739567,-0.0026548083,0.0032440404,-0.0059496167,0.2069489456,0.4412722384,9.7958620196
1520531125773755567,-0.0091823366,0.0055623587,-0.0021320546,0.1552385339,0.4412762658,9.8289053677
1520531125778770567,-0.0131965708,0.0072952504,0.0030291235,0.1853027267,0.4460704860,9.8797423979
1520531125783786567,-0.0169617055,0.0075720464,0.0079081735,0.1143512317,0.3849198503,9.9316269666
1520531125788802567,-0.0237497691,0.0040669463,0.0100584652,0.1107435285,0.3501450590,9.9758574628
1520531125793817567,-0.0285338205,-0.0038066772,0.0116305850,0.1865052944,0.3345503329,9.9855945413
1520531125798831567,-0.0343211306,-0.0099309305,0.0126768184,0.1853027267,0.3249573032,9.9751563055
1520531125803848567,-0.0375901325,-0.0134375659,0.0159027596,0.2177720550,0.2913788425,9.9644137148
1520531125808863567,-0.0428660083,-0.0154931653,0.0210373712,0.2382157061,0.2829832674,9.9270343077
1520531125813878567,-0.0463835333,-0.0154967290,0.0218555430,0.2177720550,0.2997728255,9.8842175966
1520531125818896567,-0.0478987123,-0.0189851929,0.0185851156,0.2105566487,0.2853837024,9.8750047074
1520531125823910567,-0.0489032019,-0.0178171349,0.0175136912,0.2370131384,0.2925764844,9.8340651417
1520531125828925567,-0.0506675236,-0.0195566616,0.0139865231,0.2261900290,0.3057678720,9.8178876091
1520531125833942567,-0.0514285395,-0.0218749215,0.0091003125,0.1997335393,0.2853845453,9.7833006805
1520531125838957567,-0.0489161197,-0.0209939559,0.0069379473,0.2261900290,0.3225558379,9.8155469505
1520531125843973567,-0.0474059980,-0.0204156951,0.0088334144,0.2153669196,0.3657257361,9.8167723437
1520531125848987567,-0.0448906378,-0.0201298819,0.0112658834,0.2310002998,0.3861099057,9.8293838827
1520531125854005567,-0.0413692513,-0.0210172257,0.0166635979,0.2213797581,0.4148900252,9.8248008832
1520531125859019567,-0.0368455705,-0.0230653433,0.0204272778,0.2129617841,0.4148906808,9.7946670758
1520531125864034567,-0.0353378756,-0.0268695053,0.0266181330,0.1985309716,0.4172900856,9.7773730385
1520531125869051567,-0.0305665027,-0.0312471437,0.0298224697,0.1949232684,0.4268834899,9.8145874055
1520531125874067567,-0.0245359934,-0.0327060740,0.0314234283,0.1816950236,0.3921094479,9.7845343291
1520531125879082567,-0.0184984430,-0.0283344000,0.0319866650,0.1275794765,0.3717282754,9.7502166168
1520531125884097567,-0.0119618468,-0.0221945543,0.0252575676,0.1083383931,0.3093744719,9.7028168012
1520531125889113567,-0.0074357706,-0.0151769721,0.0169155979,0.1083383931,0.2973830677,9.6772613276
1520531125894129567,-0.0039145368,-0.0075755578,0.0080388494,0.1239717734,0.2805938842,9.6887469722
1520531125899144567,0.0021225902,0.0026514871,-0.0016341962,0.1131486640,0.2482179357,9.6691274426
1520531125904160567,0.0069015491,0.0108347059,-0.0099677404,0.1047306900,0.1978546935,9.6750692100
1520531125909176567,0.0089132296,0.0169778784,-0.0185822580,0.1275794765,0.2086451778,9.6818091536
1520531125914190567,0.0116765170,0.0207873563,-0.0261337770,0.1359974505,0.2398221732,9.7002911187
1520531125919206567,0.0166963033,0.0211025629,-0.0342572652,0.1720744819,0.2086417124,9.7278618247
1520531125924222567,0.0169410512,0.0179047159,-0.0369876448,0.1624539402,0.1918544958,9.7616740106
1520531125929239567,0.0169311521,0.0106201027,-0.0370432220,0.1792898882,0.2194334142,9.7626453890
1520531125934254567,0.0161647691,0.0045145724,-0.0422288786,0.2033412424,0.1846564688,9.7368780317
1520531125939270567,0.0146461088,-0.0036455135,-0.0420177788,0.2213797581,0.1858542043,9.7866734765
1520531125944284567,0.0111170969,-0.0135627070,-0.0388402788,0.2803055761,0.2122307043,9.7802634835
1520531125949300567,0.0113569521,-0.0237690797,-0.0359425487,0.3019517949,0.2110298780,9.7614596586
1520531125954316567,0.0085826287,-0.0331032088,-0.0327620027,0.2742927375,0.1990406279,9.7756862957
1520531125959332567,0.0050530445,-0.0436038997,-0.0293184030,0.2526465187,0.1726612245,9.7282748101
1520531125964346567,0.0030306417,-0.0529311775,-0.0285741702,0.2418234092,0.1402852760,9.7109795684
1520531125969363567,0.0002571141,-0.0602190590,-0.0278129757,0.2237848935,0.0899227831,9.7402578554
1520531125974379567,0.0005056412,-0.0622586523,-0.0278290040,0.2273925967,0.0239697788,9.7228548946
1520531125979393567,-0.0004992953,-0.0640160944,-0.0245939249,0.2358105707,-0.0203990725,9.6716818907
1520531125984410567,-0.0062762752,-0.0657841484,-0.0181034273,0.2694824666,-0.0323930992,9.6667172667
1520531125989425567,-0.0097945608,-0.0710537581,-0.0094794400,0.2129617841,0.0047846560,9.7067440493
1520531125994446567,-0.0097959800,-0.0763176188,-0.0024852623,0.2261900290,0.0695372086,9.6321749363
1520531125999456567,-0.0125610669,-0.0798284279,0.0023630208,0.1853027267,0.0971206228,9.6406810211
1520531126004472567,-0.0170837049,-0.0818815467,0.0066845945,0.1961258361,0.1798604690,9.6776835977
1520531126009488567,-0.0170830541,-0.0848106890,0.0123438275,0.2370131384,0.1894504080,9.6981948623
1520531126014502567,-0.0211053369,-0.0880269637,0.0158439378,0.2502413832,0.2050382032,9.7666173985
1520531126019519567,-0.0233679555,-0.0906590517,0.0190746813,0.2057463779,0.2530072856,9.7972194549
1520531126024534567,-0.0256393245,-0.0979452794,0.0192938506,0.1792898882,0.2206325547,9.7928599624
1520531126029550567,-0.0281590873,-0.1026069595,0.0187218566,0.2237848935,0.1690660510,9.8866108172
1520531126034566567,-0.0331866006,-0.1026038296,0.0168373698,0.1672642110,0.1846592786,9.8394978513
1520531126039580567,-0.0389783878,-0.1081278315,0.0113949479,0.1756821850,0.1930526059,9.8905420646
1520531126044596567,-0.0450168517,-0.1092767933,0.0043630636,0.1901129976,0.1750643756,9.8450955298
1520531126049613567,-0.0518029236,-0.1069345352,-0.0007469222,0.1985309716,0.1846568434,9.8787064143
1520531126054629567,-0.0580864881,-0.1054698760,-0.0045117812,0.2153669196,0.1798589705,9.8216021671
1520531126059644567,-0.0643677592,-0.1002077482,-0.0117648368,0.2033412424,0.1990461539,9.8821319939
1520531126064658567,-0.0691326123,-0.0879488874,-0.0200495222,0.2442285447,0.2673939735,9.8409923312
1520531126069674567,-0.0754043372,-0.0759863723,-0.0267103550,0.2983440917,0.2697880397,9.8439496969
1520531126074690567,-0.0824348002,-0.0683985628,-0.0320504045,0.3476493680,0.3189489570,9.8039089522
1520531126079706567,-0.0887049060,-0.0584903081,-0.0333158810,0.3356236908,0.3525258255,9.8469925876
1520531126084721567,-0.0969939331,-0.0532377092,-0.0373186520,0.2634696281,0.3225529345,9.9232634815
1520531126089736567,-0.1062942675,-0.0511849064,-0.0435083773,0.2562542218,0.3249517773,9.9500606841
1520531126094752567,-0.1160936399,-0.0479733183,-0.0472533637,0.3211928783,0.3009639112,9.9622355813
1520531126099768567,-0.1273895066,-0.0395312397,-0.0458151622,0.4222085662,0.3465233798,10.0274501271
1520531126104784567,-0.1394461344,-0.0366279477,-0.0436061614,0.4582855976,0.3057497956,10.0131930055
1520531126109800567,-0.1540195338,-0.0363473727,-0.0416830471,0.4558804621,0.3213388084,10.0759569877
1520531126114815567,-0.1663279897,-0.0343205180,-0.0386686112,0.5003754675,0.3177379218,10.0592573933
1520531126119832567,-0.1803941731,-0.0311280860,-0.0359125618,0.4318291079,0.3237389625,10.0494594392
1520531126124846567,-0.1957253815,-0.0325910145,-0.0358952071,0.3909418056,0.3141490235,10.0661367812
1520531126129862567,-0.2095439160,-0.0314352620,-0.0342373696,0.3428390971,0.2973648040,10.0131627323
1520531126134877567,-0.2216023002,-0.0285261426,-0.0341927361,0.3284082846,0.2829762429,9.9389400120
1520531126139893567,-0.2309025562,-0.0299859797,-0.0344571286,0.3656878837,0.2769776373,9.9432315777
1520531126144908567,-0.2407041867,-0.0337916585,-0.0293274545,0.3885366702,0.2733784365,9.8756083403
1520531126149925567,-0.2489899757,-0.0326475802,-0.0225395129,0.4017649151,0.2481954573,9.7883433443
1520531126154940567,-0.2592851478,-0.0323857274,-0.0130490478,0.4065751859,0.2302079763,9.7464768818
1520531126159955567,-0.2668206470,-0.0335709731,-0.0068213828,0.3993597796,0.1570609725,9.7745098967
1520531126164971567,-0.2746098640,-0.0362117830,-0.0011454584,0.3668904514,0.0947081993,9.7202659730
1520531126169987567,-0.2793827933,-0.0391464381,0.0058753718,0.3440416648,0.0515409236,9.7158818895
1520531126175002567,-0.2836574766,-0.0438226477,0.0104470170,0.3404339617,0.0371515195,9.6706074225
1520531126180018567,-0.2871760130,-0.0444082520,0.0109901967,0.3596750451,0.0275568975,9.7076181029
1520531126185033567,-0.2891768966,-0.0359523324,0.0086234869,0.3260031491,0.0071741328,9.7405057540
1520531126190049567,-0.2866454196,-0.0184507939,0.0022591033,0.2959389563,0.0311592828,9.7686664485
1520531126195064567,-0.2866245120,0.0005052259,-0.0035484059,0.2766978729,0.0095762537,9.8118741038
1520531126200080567,-0.2853451697,0.0226749804,-0.0123097996,0.2791030083,0.0263640323,9.8397257778
1520531126205097567,-0.2850756017,0.0401763613,-0.0189405286,0.2887235500,0.0299607043,9.9035465468
1520531126210112567,-0.2833028119,0.0559373101,-0.0282928554,0.3139774720,0.0179673332,9.8963395703
1520531126215126567,-0.2797726945,0.0687778184,-0.0349652211,0.3211928783,0.0263607542,9.8834775711
1520531126220142567,-0.2780152218,0.0708327679,-0.0403638445,0.3921443734,0.0167621049,9.8525805847
1520531126225158567,-0.2775134121,0.0717136743,-0.0427930218,0.3945495088,0.0263550409,9.8653314034
1520531126230174567,-0.2752513267,0.0720059449,-0.0427949992,0.3849289671,0.0239575094,9.7829151617
1520531126235191567,-0.2712355244,0.0655846773,-0.0382520944,0.3692955868,0.0335518503,9.6970593202
1520531126240204567,-0.2684820733,0.0527429882,-0.0302386673,0.3777135608,0.0047718246,9.6481954028
1520531126245220567,-0.2649757882,0.0366854381,-0.0181929058,0.3332185554,-0.0156100972,9.6102976182
1520531126250237567,-0.2559469467,0.0197719260,-0.0121160911,0.2935338209,-0.0767631680,9.5189341490
1520531126255252567,-0.2456639006,0.0005249163,-0.0049772112,0.2574567895,-0.1283233964,9.4693633922
1520531126260268567,-0.2356266529,-0.0143499672,0.0016543899,0.2622670604,-0.1774885284,9.3252586646
1520531126265283567,-0.2200661040,-0.0306686808,0.0042064192,0.2514439509,-0.2482369705,9.2615150836
1520531126270299567,-0.2062638118,-0.0466981559,0.0073050305,0.2586593572,-0.3249825195,9.2440875317
1520531126275314567,-0.1919576909,-0.0621461219,0.0109482463,0.2730901698,-0.3129922392,9.2218546425
1520531126280330567,-0.1743874100,-0.0784618626,0.0126849042,0.2297977321,-0.4077209609,9.2456112814
1520531126285345567,-0.1580662724,-0.0880704239,0.0123106594,0.2285951644,-0.4293053949,9.1852125489
1520531126290361567,-0.1407379165,-0.0965145102,0.0124845319,0.2430259770,-0.4676790123,9.2095145302
1520531126295376567,-0.1244094712,-0.0991225586,0.0094581823,0.2237848935,-0.4856646201,9.2480701016
1520531126300392567,-0.1053136574,-0.0988127650,0.0053667460,0.2334054352,-0.4412971737,9.2328253242
1520531126305407567,-0.0869643069,-0.0938447565,0.0026650087,0.1913155653,-0.4376964744,9.2169614778
1520531126310423567,-0.0678614912,-0.0859480387,-0.0054268159,0.1384025859,-0.4652725831,9.2058819556
1520531126315439567,-0.0482545841,-0.0777633816,-0.0121646213,0.1299846119,-0.4484839615,9.2838111651
1520531126320455567,-0.0304105913,-0.0704448261,-0.0221523797,0.1444154245,-0.4304979791,9.3254903467
1520531126325471567,-0.0155830665,-0.0645880169,-0.0307929233,0.1889104299,-0.4137134786,9.4249852690
1520531126330486567,0.0002502221,-0.0596107949,-0.0372776359,0.2346080030,-0.4029247739,9.4930964461
1520531126335502567,0.0125633865,-0.0578481938,-0.0408042635,0.2851158469,-0.3381751247,9.4437316433
1520531126340518567,0.0268853615,-0.0557868647,-0.0467673148,0.3127749043,-0.2638305726,9.4829028224
1520531126345532567,0.0394482840,-0.0554825446,-0.0497644328,0.3187877429,-0.2302551091,9.4479472370
1520531126350549567,0.0540219499,-0.0545932110,-0.0533019301,0.3801186962,-0.2086753581,9.4229242080
1520531126355564567,0.0701016054,-0.0548680963,-0.0571216660,0.4546778944,-0.2746338883,9.4083170807
1520531126360579567,0.0854359815,-0.0510740917,-0.0571212360,0.4077777536,-0.3130027291,9.4018381330
1520531126365594567,0.1020283925,-0.0458212153,-0.0576531160,0.4582855976,-0.3609722798,9.3874475668
1520531126370611567,0.1206336952,-0.0411612467,-0.0541349875,0.5761372334,-0.4293324626,9.3642863884
1520531126375625567,0.1377351999,-0.0368078221,-0.0452053639,0.4943626290,-0.4365209363,9.3813593637
1520531126380642567,0.1581039030,-0.0301125717,-0.0397811196,0.3572699097,-0.4425059611,9.3792131549
1520531126385656567,0.1812316203,-0.0248622344,-0.0384313131,0.3055594980,-0.3861423339,9.3250407476
1520531126390672567,0.2028430570,-0.0245601974,-0.0392808659,0.2827107115,-0.3117938481,9.3298392204
1520531126395687567,0.2259643527,-0.0233863298,-0.0390443662,0.2827107115,-0.2866118992,9.2484645875
1520531126400704567,0.2503341370,-0.0274539777,-0.0399323992,0.2249874613,-0.1678925016,9.2186949228
1520531126405720567,0.2709333372,-0.0329829388,-0.0397423633,0.4366393787,-0.2086797601,9.2004045751
1520531126410736567,0.2907882264,-0.0335681279,-0.0359960380,0.4871472227,-0.2758355576,9.2615720753
1520531126415749567,0.3109046623,-0.0277478580,-0.0303074504,0.5099960092,-0.2470579669,9.3914817379
1520531126420767567,0.3280104403,-0.0181400423,-0.0248549078,0.4715138424,-0.2278687231,9.4697012352
1520531126425782567,0.3423543540,-0.0056143652,-0.0212688217,0.3139774720,-0.1643020112,9.6059813213
1520531126430798567,0.3539284488,0.0072212810,-0.0249801178,0.3187877429,-0.1139384880,9.6674790184
1520531126435813567,0.3629892457,0.0191788753,-0.0276112323,0.3741058577,-0.1307307623,9.7111184269
1520531126440829567,0.3705437393,0.0299601428,-0.0264607963,0.4450573527,-0.0827706713,9.8521626174
1520531126445844567,0.3758491202,0.0477235547,-0.0214651631,0.3741058577,-0.0312021072,9.8516407902
1520531126450861567,0.3791358462,0.0620012196,-0.0208212075,0.2322028675,0.0695367403,9.9551924303
1520531126455875567,0.3773857321,0.0695808987,-0.0223834156,0.3031543626,0.0371544229,9.9789384272
1520531126460892567,0.3786501024,0.0757019229,-0.0228801563,0.3668904514,0.0491408632,9.9759820779
1520531126465906567,0.3741293580,0.0756914096,-0.0196252045,0.3825238317,0.0623301902,9.9665198978
1520531126470922567,0.3665918828,0.0745127198,-0.0158324526,0.3223954460,0.1019065072,9.9275536680
1520531126475938567,0.3605606168,0.0721690826,-0.0120513934,0.3717007222,0.1126949310,9.9444953959
1520531126480954567,0.3525253779,0.0724376489,-0.0047294960,0.3031543626,0.1378822185,9.8870308303
1520531126485969567,0.3444832391,0.0703875223,-0.0020246634,0.2682798989,0.2122316409,9.9233242405
1520531126490985567,0.3356855768,0.0674644036,0.0001338082,0.2538490864,0.2062370627,9.9862263214
1520531126496000567,0.3231264375,0.0697818159,0.0034214798,0.2346080030,0.1954462974,10.0015319977
1520531126501015567,0.3110711779,0.0753148529,0.0029450293,0.2346080030,0.2554033186,10.0212299780
1520531126506032567,0.2977631211,0.0840548128,0.0016837287,0.2177720550,0.2482097873,10.0132658571
1520531126511047567,0.2849566976,0.0933835660,-0.0017384263,0.1877078622,0.2494112692,10.0867723833
1520531126516062567,0.2726535264,0.1012468523,-0.0019260794,0.2213797581,0.2170318553,10.0829897820
1520531126521079567,0.2560773930,0.1076479002,-0.0007641842,0.2502413832,0.2206270287,10.1350018306
1520531126526095567,0.2394943910,0.1070469781,0.0035909077,0.2754953052,0.2110319385,10.1568461143
1520531126531110567,0.2234131908,0.1044000055,0.0103644176,0.3175851752,0.1870458519,10.1390276648
1520531126536125567,0.2065755380,0.0982488388,0.0198181096,0.2863184146,0.2062345339,10.1741776054
1520531126541142567,0.1897397357,0.0944331189,0.0276663109,0.2887235500,0.2338145763,10.1578572851
1520531126546156567,0.1739068000,0.0900401228,0.0336143779,0.3091672012,0.2769820393,10.1831833700
1520531126551173567,0.1565682706,0.0871027302,0.0398469066,0.3308134200,0.3237468299,10.1782784989
1520531126556187567,0.1404848750,0.0844630418,0.0439149575,0.3380288263,0.3513264977,10.1584249265
1520531126561204567,0.1238985329,0.0827024091,0.0460967899,0.3380288263,0.3837032891,10.1339883313
1520531126566218567,0.1078128125,0.0809485293,0.0458427758,0.3031543626,0.3573249160,10.0971648969
1520531126571234567,0.0919736355,0.0742346550,0.0479854156,0.3175851752,0.3777091792,10.0888695498
1520531126576250567,0.0756258390,0.0651989772,0.0465941075,0.3380288263,0.3777075870,10.0875084199
1520531126581266567,0.0620452348,0.0587890284,0.0444060355,0.3103697689,0.3357398264,10.0564406763
1520531126586282567,0.0482098543,0.0491708377,0.0432761599,0.3079646335,0.3321425924,10.1017912086
1520531126591297567,0.0351323691,0.0407104677,0.0451297813,0.2875209823,0.3513304314,10.1321872280
1520531126596312567,0.0250733356,0.0366322451,0.0432235057,0.2490388155,0.3489351477,10.1093212494
1520531126601328567,0.0137613286,0.0354688324,0.0408007029,0.2322028675,0.3657244249,10.0908744461
1520531126606344567,0.0044636287,0.0375128940,0.0378575284,0.2586593572,0.3669215048,10.0871293337
1520531126611359567,-0.0023277241,0.0354821989,0.0335258340,0.2370131384,0.3621266290,10.0559668153
1520531126616375567,-0.0088724826,0.0311256250,0.0272820669,0.2310002998,0.3621270973,10.0060531506
1520531126621390567,-0.0146592555,0.0288046677,0.0226757366,0.2478362478,0.3321472754,10.0152156649
1520531126626407567,-0.0171739570,0.0285166692,0.0210549054,0.2851158469,0.3201529677,9.9555951599
1520531126631421567,-0.0174262242,0.0276416887,0.0213192488,0.2670773312,0.3561285853,9.9522492237
1520531126636437567,-0.0174287293,0.0267719057,0.0196893041,0.2887235500,0.3513303378,9.9439082023
1520531126641453567,-0.0156658152,0.0276380073,0.0229392571,0.2935338209,0.3225505930,9.9125115595
1520531126646468567,-0.0118953291,0.0252945677,0.0280548436,0.2899261178,0.3105594697,9.9625305581
1520531126651485567,-0.0098877651,0.0191580695,0.0347680724,0.2586593572,0.2913756581,9.9396107199
1520531126656499567,-0.0048628549,0.0144804039,0.0412162701,0.2394182738,0.2901780162,9.9235291548
1520531126661515567,0.0016616663,0.0042692082,0.0468077911,0.2394182738,0.3069659822,9.9444313752
1520531126666530567,0.0064307496,-0.0024424202,0.0510765267,0.2646721958,0.3501330705,9.9057927223
1520531126671547567,0.0109499847,-0.0085735632,0.0561618129,0.2610644926,0.3417393686,9.8628366965
1520531126676562567,0.0197413939,-0.0123617583,0.0574693070,0.2021386747,0.3357482558,9.8994425536
1520531126681578567,0.0267747620,-0.0173249218,0.0620177265,0.1997335393,0.3345493027,9.8890078374
1520531126686594567,0.0340604874,-0.0205353092,0.0649557424,0.2538490864,0.3345450880,9.8280496243
1520531126691609567,0.0425984023,-0.0243163184,0.0635582443,0.2418234092,0.3537322714,9.8269858215
1520531126696624567,0.0498778473,-0.0280912640,0.0597281666,0.2466336801,0.3765155648,9.8234303519
1520531126701640567,0.0581655690,-0.0289490568,0.0548362694,0.2514439509,0.4136885432,9.8454280173
1520531126706656567,0.0669514897,-0.0327190411,0.0493801161,0.2622670604,0.4028954365,9.8453331959
1520531126711672567,0.0754955715,-0.0292030538,0.0434389148,0.2983440917,0.3944986437,9.8298823581
1520531126716686567,0.0835386434,-0.0230582468,0.0350837416,0.2670773312,0.3729165513,9.8360184575
1520531126721702567,0.0880653312,-0.0172134870,0.0294383385,0.2406208415,0.3633254884,9.8304746037
1520531126726718567,0.0935970379,-0.0116604463,0.0240593913,0.2526465187,0.3333460412,9.8338732185
1520531126731734567,0.0996331456,-0.0049423991,0.0189589489,0.2466336801,0.3093637010,9.8757923129
1520531126736750567,0.1029024140,-0.0002658549,0.0141186247,0.1985309716,0.3177614304,9.9029816407
1520531126741765567,0.1066730020,0.0026589368,0.0106167581,0.2851158469,0.2613950870,9.8824373884
1520531126746780567,0.1086811933,0.0012035302,0.0103313630,0.2875209823,0.2649923209,9.9184369328
1520531126751797567,0.1111898260,-0.0020007150,0.0103022418,0.2887235500,0.2889750358,9.8777268026
1520531126756812567,0.1111882422,-0.0031662531,0.0102933495,0.2466336801,0.2973722968,9.8839390139
1520531126761828567,0.1149538591,-0.0037373473,0.0064942599,0.2285951644,0.3477375995,9.8619847424
1520531126766842567,0.1162024811,-0.0083939085,0.0045625357,0.2634696281,0.3873065173,9.8674174274
1520531126771859567,0.1156942537,-0.0118878060,0.0034546085,0.3115723366,0.4016924560,9.8878537842
1520531126776875567,0.1172013371,-0.0145191456,0.0069488970,0.3332185554,0.3849028042,9.9283345023
1520531126781890567,0.1179462989,-0.0223920599,0.0090518407,0.3789161285,0.3753061217,9.9616012396
1520531126786906567,0.1194502577,-0.0276473171,0.0130672133,0.3717007222,0.3717092624,10.0267550394
1520531126791921567,0.1204494665,-0.0331883284,0.0149169290,0.3825238317,0.3789032620,10.0417505492
1520531126796936567,0.1222052064,-0.0387377854,0.0200117954,0.3680930191,0.3177482244,10.0326534946
1520531126801953567,0.1209462894,-0.0416572219,0.0218857194,0.3404339617,0.2961658509,10.0224844634
1520531126806969567,0.1174247225,-0.0425254696,0.0191801253,0.3296108523,0.3117555194,10.0167638877
1520531126811984567,0.1166726333,-0.0398974768,0.0170371661,0.2923312532,0.3693171631,10.0461242150
1520531126816998567,0.1141571478,-0.0378412873,0.0105642934,0.2827107115,0.4064912655,10.0554787576
1520531126822015567,0.1093854691,-0.0328772376,0.0060116734,0.2863184146,0.4280755122,10.1100433602
1520531126827029567,0.1046148451,-0.0276239888,0.0022729141,0.3272057169,0.4160809235,10.1747371431
1520531126832047567,0.0978315880,-0.0235348804,-0.0022826414,0.3680930191,0.4400605475,10.2115043909
1520531126837061567,0.0895435213,-0.0203343565,-0.0017016938,0.4210059985,0.4616409541,10.2458326390
1520531126842077567,0.0777343189,-0.0209304941,0.0015623468,0.4125880245,0.4784295757,10.2854110980
1520531126847091567,0.0646630318,-0.0267771445,0.0066825267,0.4173982953,0.5227973967,10.2888074441
1520531126852109567,0.0510925344,-0.0302936441,0.0120919707,0.4342342433,0.5467788939,10.3513759601
1520531126857123567,0.0382732479,-0.0364352227,0.0185621903,0.4751215456,0.5407800074,10.3265788118
1520531126862140567,0.0239452472,-0.0422816370,0.0234141579,0.4727164101,0.5263905096,10.3208055342
1520531126867155567,0.0088668273,-0.0449202031,0.0272097961,0.4618933007,0.5227939313,10.3232386757
1520531126872171567,-0.0082226417,-0.0475573716,0.0301975303,0.4306265402,0.5203980856,10.3142481942
1520531126877187567,-0.0210366395,-0.0463990400,0.0310418633,0.3753084254,0.4700384962,10.3136735951
1520531126882202567,-0.0383751571,-0.0449459971,0.0300029990,0.3680930191,0.4244717220,10.3312204196
1520531126887217567,-0.0539539634,-0.0417381303,0.0268098390,0.4258162693,0.3920904349,10.4050673621
1520531126892233567,-0.0702893557,-0.0426194120,0.0271040527,0.4943626290,0.3740979900,10.4497413282
1520531126897248567,-0.0873801851,-0.0449593684,0.0279296429,0.5148062801,0.4160663126,10.5041221812
1520531126902264567,-0.1042232794,-0.0499216872,0.0287347586,0.4751215456,0.4004805778,10.4859293462
1520531126907280567,-0.1208095784,-0.0519751613,0.0314554597,0.4294239725,0.3645099242,10.4713013472
1520531126912295567,-0.1399126450,-0.0551878737,0.0314664767,0.3656878837,0.3549217648,10.4254453117
1520531126917310567,-0.1575102905,-0.0586848240,0.0290375573,0.3813212639,0.3465265643,10.3578969820
1520531126922327567,-0.1708326881,-0.0598490244,0.0266184882,0.3897392379,0.3513224703,10.2997031715
1520531126927343567,-0.1849029998,-0.0569355936,0.0247730343,0.3668904514,0.2817741053,10.2558319190
1520531126932359567,-0.1974605473,-0.0505256862,0.0232220029,0.3644853160,0.2637871863,10.3139800669
1520531126937374567,-0.2115292751,-0.0464467173,0.0213854414,0.3813212639,0.2326082240,10.3033873034
1520531126942388567,-0.2218296220,-0.0438261080,0.0206129471,0.4294239725,0.2002276862,10.2657620667
1520531126947404567,-0.2278603509,-0.0423664493,0.0187414426,0.4222085662,0.1834402822,10.2495786525
1520531126952420567,-0.2361540473,-0.0426596260,0.0182135296,0.4258162693,0.2158167927,10.2355662377
1520531126957437567,-0.2426858841,-0.0423759003,0.0201217088,0.4438547850,0.2338024941,10.1575094768
1520531126962452567,-0.2449469189,-0.0438424502,0.0233613446,0.4703112747,0.2577832421,10.1165535404
1520531126967471567,-0.2477099789,-0.0447256995,0.0263358141,0.5063883061,0.2361959047,10.1464391796
1520531126972482567,-0.2474556927,-0.0441501163,0.0290452526,0.4871472227,0.2254051394,10.0769083473
1520531126977498567,-0.2446901746,-0.0435677211,0.0295856566,0.4546778944,0.2074205619,10.0075132867
1520531126982513567,-0.2409126828,-0.0368607580,0.0282770572,0.4294239725,0.1894354224,9.9740744583
1520531126987529567,-0.2328663687,-0.0333609931,0.0282887991,0.4691087070,0.1654495231,9.9713872903
1520531126992545567,-0.2240772411,-0.0365562211,0.0258130968,0.4342342433,0.1798419244,9.9751991367
1520531126997560567,-0.2155388439,-0.0406315285,0.0254955591,0.4727164101,0.1642501017,9.9701912005
1520531127002576567,-0.2052382383,-0.0450091862,0.0295012656,0.4907549258,0.1618504160,9.9061000459
1520531127007593567,-0.1921729455,-0.0476308979,0.0310802636,0.4715138424,0.1474622295,9.8017084030
1520531127012608567,-0.1775991071,-0.0479129298,0.0296982411,0.5087934415,0.0887014453,9.7886192603
1520531127017624567,-0.1607591022,-0.0487943271,0.0348006734,0.5340473635,0.1054874443,9.7348984615
1520531127022639567,-0.1466824160,-0.0488019253,0.0396443630,0.5063883061,0.1474595133,9.6828302730
1520531127027655567,-0.1298468920,-0.0505465497,0.0406819376,0.4582855976,0.1522598214,9.6368080397
1520531127032670567,-0.1137642531,-0.0517094288,0.0419959045,0.5027806029,0.1810357262,9.5596453875
1520531127037686567,-0.0954159651,-0.0499575766,0.0433279016,0.5256293895,0.1990210530,9.5024603976
1520531127042702567,-0.0755625226,-0.0496598709,0.0438343454,0.4943626290,0.2074174711,9.4678922251
1520531127047716567,-0.0549549601,-0.0478991198,0.0421861372,0.4751215456,0.2613802887,9.4877833329
1520531127052733567,-0.0333340635,-0.0403110128,0.0408510697,0.4570830299,0.2673773957,9.4449537358
1520531127057747567,-0.0117164600,-0.0327119792,0.0354578138,0.4450573527,0.2290058388,9.5276204259
1520531127062763567,0.0078860915,-0.0277325520,0.0286955545,0.4426522173,0.2002266559,9.5904276737
1520531127067779567,0.0279926912,-0.0221723440,0.0227484455,0.4498676236,0.2314037450,9.6902714206
1520531127072795567,0.0435713407,-0.0183549311,0.0140909401,0.4522727590,0.2637803491,9.6611628395
1520531127077811567,0.0634269513,-0.0119177543,0.0070687836,0.4907549258,0.2673747733,9.6445147543
1520531127082826567,0.0787576422,-0.0069407292,0.0005850044,0.5316422281,0.2961509590,9.6464130062
1520531127087841567,0.0938350506,-0.0048842038,-0.0034856258,0.5196165509,0.3189355636,9.6186163844
1520531127092857567,0.1053930874,-0.0037032102,-0.0075563912,0.5148062801,0.3525118701,9.5988740159
1520531127097872567,0.1171978480,-0.0057266196,-0.0119226231,0.5111985769,0.3465164490,9.5594020833
1520531127102888567,0.1237200523,-0.0121250498,-0.0155007625,0.4811343841,0.3597093351,9.5027367932
1520531127107905567,0.1325080783,-0.0167801141,-0.0169053966,0.5063883061,0.3477159640,9.4978541046
1520531127112918567,0.1392855802,-0.0220209204,-0.0174991055,0.4907549258,0.3285309348,9.5073221314
1520531127117934567,0.1430488606,-0.0260966417,-0.0183488672,0.5184139832,0.3249313594,9.5488936055
1520531127122951567,0.1463160511,-0.0266817730,-0.0170066513,0.5244268218,0.2961515209,9.5430524246
1520531127127967567,0.1490797188,-0.0284348246,-0.0148607566,0.5761372334,0.2937492127,9.5530107414
1520531127132982567,0.1478284545,-0.0266964793,-0.0113279878,0.5641115563,0.3093389748,9.5891390531
1520531127137998567,0.1458228507,-0.0264204510,-0.0059111130,0.5087934415,0.2793647726,9.6280574697
1520531127143014567,0.1430620762,-0.0264331889,-0.0015772447,0.5111985769,0.2757671640,9.6129296962
1520531127148028567,0.1408030644,-0.0267356576,0.0022123752,0.5099960092,0.2661741343,9.6454907867
1520531127153044567,0.1387957905,-0.0270394847,0.0065426203,0.5593012855,0.2721659963,9.6020057064
1520531127158061567,0.1352906187,-0.0215227678,0.0133550404,0.5232242541,0.3153378614,9.6255576410
1520531127163075567,0.1290195367,-0.0154163522,0.0172010358,0.4618933007,0.3153426380,9.5947767121
1520531127168091567,0.1202286568,-0.0107518182,0.0150885733,0.3993597796,0.2877672786,9.6674651950
1520531127173107567,0.1116846809,-0.0075360957,0.0099885238,0.4570830299,0.2493902894,9.6948322260
1520531127178122567,0.1011310592,-0.0049090289,0.0067815832,0.5256293895,0.2289995636,9.7348599550
1520531127183138567,0.0905743090,-0.0063693583,0.0065195243,0.5532884469,0.2613742008,9.8019635158
1520531127188153567,0.0790150451,-0.0066681855,0.0076209541,0.5725295303,0.2961477745,9.7831480208
1520531127193169567,0.0684655085,-0.0034692761,0.0084766481,0.5256293895,0.3105411124,9.8312383881
1520531127198184567,0.0554031600,0.0000207617,0.0090686865,0.5376550666,0.2901547886,9.8811134063
1520531127203200567,0.0420879680,0.0005888430,0.0126149656,0.5749346657,0.2277965831,9.9052163783
1520531127208217567,0.0300307678,0.0029086375,0.0150900661,0.5737320980,0.2110087108,9.9215144694
1520531127213231567,0.0167194884,0.0052199269,0.0205435050,0.5617064209,0.2074122261,9.9146621643
1520531127218247567,0.0049229529,0.0124846156,0.0263024820,0.5388576343,0.2433882184,9.9601730944
1520531127223263567,-0.0058697046,0.0197540688,0.0304363167,0.5484781760,0.2457857500,9.9391585241
1520531127228279567,-0.0184256801,0.0229390787,0.0361655706,0.5448704729,0.2289980650,9.9333992902
1520531127233294567,-0.0299810315,0.0243834597,0.0391741601,0.5388576343,0.2289985333,9.9799435737
1520531127238309567,-0.0417839416,0.0287423159,0.0419349014,0.4582855976,0.1558572427,10.0621492190
1520531127243325567,-0.0541032962,0.0272929522,0.0373473751,0.4606907330,0.0671206640,10.1121845300
1520531127248340567,-0.0671717998,0.0278764290,0.0352117237,0.6074039940,0.2373871777,10.1164011867
1520531127253356567,-0.0777188783,0.0307744843,0.0395822913,0.5364524989,0.2901548822,10.1042567506
1520531127258372567,-0.0890146235,0.0354110817,0.0474846942,0.5196165509,0.2649742446,10.1323366324
1520531127263387567,-0.0927688046,0.0432616901,0.0532331822,0.4979703321,0.2985518623,10.1069474149
1520531127268404567,-0.1015592964,0.0452906515,0.0559705380,0.5400602021,0.3069425672,10.0681788021
1520531127273419567,-0.1035577730,0.0508116013,0.0614274284,0.5220216864,0.2625757764,10.0916405226
1520531127278434567,-0.1055680382,0.0484688109,0.0654715659,0.4739189778,0.2230078888,10.1037687526
1520531127283450567,-0.1090871901,0.0475925506,0.0657419767,0.4715138424,0.1858347230,10.1363684429
1520531127288466567,-0.1123544277,0.0470070447,0.0662846897,0.4498676236,0.1558578983,10.1342840795
1520531127293481567,-0.1113568890,0.0408861782,0.0670477757,0.4883497904,0.1690454459,10.0548708661
1520531127298496567,-0.1095910266,0.0440840844,0.0700449674,0.4883497904,0.1306729523,10.0642054366
1520531127303512567,-0.1035642574,0.0397105804,0.0718942411,0.5063883061,0.1150827219,10.0163971600
1520531127308528567,-0.0972827629,0.0359112028,0.0769940449,0.4354368110,0.1174865287,9.9891939648
1520531127313543567,-0.0915069827,0.0324146676,0.0777682709,0.3729032900,0.0851146076,9.9503213054
1520531127318559567,-0.0842303565,0.0254293932,0.0758075606,0.3692955868,0.0935088715,9.8852681738
1520531127323576567,-0.0734326927,0.0184360275,0.0773574129,0.4234111339,0.1426694142,9.9137471022
1520531127328590567,-0.0628804354,0.0146426942,0.0808260070,0.5087934415,0.1870309600,9.8047933899
1520531127333607567,-0.0513195484,0.0143507396,0.0826961359,0.4715138424,0.2493891655,9.7655825465
1520531127338621567,-0.0374975443,0.0134761736,0.0848281641,0.4137905922,0.3033549802,9.7835239283
1520531127343637567,-0.0224251581,0.0094026976,0.0847690375,0.4065751859,0.3369314740,9.7498592425
1520531127348652567,-0.0093657107,0.0047514923,0.0825448313,0.4570830299,0.3309318382,9.7505356207
1520531127353669567,0.0069635226,0.0012627344,0.0819467255,0.4534753267,0.3009536086,9.6727363245
1520531127358684567,0.0210326973,0.0001092657,0.0794767836,0.4378419465,0.2781711581,9.6578028362
1520531127363699567,0.0343440198,-0.0024948651,0.0745622134,0.3837263994,0.2445994409,9.6444165778
1520531127368715567,0.0511713227,-0.0080172903,0.0717832453,0.3512570711,0.2505976719,9.5959167216
1520531127373731567,0.0627143600,-0.0167382717,0.0657430738,0.3308134200,0.2517984045,9.4903594384
1520531127378746567,0.0762738568,-0.0219662217,0.0613491209,0.3272057169,0.2589935280,9.4218210442
1520531127383761567,0.0870724576,-0.0234014284,0.0548248348,0.2923312532,0.3261481079,9.3849064013
1520531127388776567,0.0946077334,-0.0236789328,0.0507504216,0.2851158469,0.3177546869,9.3745255214
1520531127393794567,0.1023965976,-0.0216223488,0.0456111428,0.2947363886,0.3561264312,9.3720701742
1520531127398808567,0.1134543694,-0.0184004036,0.0410157807,0.2418234092,0.3417408671,9.3981663958
1520531127403825567,0.1207478534,-0.0102212993,0.0345713906,0.2081515133,0.3393452088,9.3601457255
1520531127408840567,0.1272839203,-0.0049577925,0.0286472616,0.2117592164,0.3405440682,9.3264072663
1520531127413855567,0.1338105783,-0.0043462400,0.0188999207,0.1576436693,0.2793921213,9.3665065246
1520531127418871567,0.1390748929,-0.0072281521,0.0077755069,0.1708719142,0.2530100017,9.3652413505
1520531127423887567,0.1448353364,-0.0153569740,-0.0025782181,0.2213797581,0.2614000510,9.2845536199
1520531127428903567,0.1490904019,-0.0234943994,-0.0099531380,0.3308134200,0.2565949662,9.3171953118
1520531127433919567,0.1528495462,-0.0307760789,-0.0105568078,0.3380288263,0.3273436892,9.2763810521
1520531127438933567,0.1571142403,-0.0342622783,-0.0138379699,0.2947363886,0.3861049417,9.2209622267
1520531127443949567,0.1593751026,-0.0316243628,-0.0192330805,0.2550516541,0.3861080325,9.1481334244
1520531127448965567,0.1608872943,-0.0287113837,-0.0186725582,0.3079646335,0.3789090689,9.1987597520
1520531127453981567,0.1641602439,-0.0266813385,-0.0146048756,0.3163826074,0.4220774686,9.2358243269
1520531127458996567,0.1679271271,-0.0298909189,-0.0124719632,0.3248005814,0.4256742342,9.2508467549
1520531127464011567,0.1719390168,-0.0380553947,-0.0098362182,0.2754953052,0.4544574444,9.2815143409
1520531127469027567,0.1757015876,-0.0447630463,-0.0071888911,0.2911286855,0.4676467715,9.2267285466
1520531127474043567,0.1759488327,-0.0500180674,-0.0034417308,0.3656878837,0.4736366667,9.2701584566
1520531127479058567,0.1756954560,-0.0552798412,0.0027412760,0.4282214047,0.5311905367,9.2904122566
1520531127484074567,0.1784490913,-0.0649024604,0.0056387851,0.4029674828,0.5479804695,9.3289924425
1520531127489091567,0.1751751145,-0.0733684602,0.0109913010,0.3729032900,0.5731647599,9.3397198084
1520531127494105567,0.1703918079,-0.0818299518,0.0144527959,0.3957520765,0.5683664187,9.3976092874
1520531127499121567,0.1691244855,-0.0917462591,0.0176260953,0.4101828891,0.5431833459,9.4056283905
1520531127504136567,0.1663488018,-0.1007831762,0.0186444972,0.4246137016,0.5287925369,9.3787726509
1520531127509152567,0.1650872464,-0.1051573501,0.0196956681,0.3873341025,0.4796306830,9.4338042165
1520531127514166567,0.1630691129,-0.1106937154,0.0193866174,0.4113854568,0.4940184948,9.4149617800
1520531127519183567,0.1625716118,-0.1095400291,0.0237251775,0.4655010038,0.4904168589,9.4144385605
1520531127524199567,0.1593047662,-0.1112976289,0.0266939113,0.5184139832,0.5191921080,9.4615433760
1520531127529214567,0.1557875862,-0.1136439237,0.0318230328,0.5087934415,0.5491713679,9.4406891918
1520531127534230567,0.1593131127,-0.1098618308,0.0345508577,0.5773398012,0.5575600122,9.4295545226
1520531127539246567,0.1573108569,-0.1054991348,0.0372933967,0.6049988586,0.6031251941,9.4385380230
1520531127544262567,0.1545532972,-0.1020101594,0.0397601208,0.6134168325,0.6295056278,9.4686461050
1520531127549276567,0.1522987782,-0.0970589654,0.0403432055,0.6086065617,0.5827395259,9.4606035217
1520531127554293567,0.1500492734,-0.0889047269,0.0417623819,0.5845552074,0.5395723439,9.5294462124
1520531127559307567,0.1485488743,-0.0824904874,0.0401908147,0.6001885877,0.4940037902,9.5979049748
1520531127564323567,0.1447869661,-0.0743215426,0.0359313276,0.6639246765,0.4904014050,9.6484224489
1520531127569339567,0.1407748569,-0.0661563384,0.0330250367,0.7240530621,0.4724096156,9.6676111833
1520531127574355567,0.1347504634,-0.0600345272,0.0311891016,0.7360787393,0.4208456408,9.6617336946
1520531127579370567,0.1249603706,-0.0512924606,0.0296507210,0.7865865832,0.4136468646,9.6577626664
1520531127584386567,0.1186965572,-0.0364292120,0.0278819452,0.7348761716,0.3908672239,9.6617746331
1520531127589402567,0.1086622106,-0.0203931611,0.0228825118,0.7024068433,0.3728826464,9.6807025130
1520531127594418567,0.0978694356,-0.0078547482,0.0181283474,0.7348761716,0.3668844154,9.6757437474
1520531127599434567,0.0921006142,0.0035215525,0.0128148645,0.7444967133,0.3440999981,9.6698616046
1520531127604449567,0.0825639883,0.0184031887,0.0037474168,0.7276607653,0.3381056072,9.6886256253
1520531127609464567,0.0692615299,0.0353201261,-0.0042152848,0.7444967133,0.3716802278,9.7000504526
1520531127614479567,0.0587184777,0.0496200563,-0.0138264035,0.7769660415,0.4544183882,9.7484637777
1520531127619496567,0.0476674019,0.0545714465,-0.0145797129,0.8106379375,0.5371564550,9.8607833153
1520531127624511567,0.0363503297,0.0475708737,-0.0135298808,0.8839945680,0.5575361289,9.9367509291
1520531127629527567,0.0277946827,0.0376538964,-0.0111546840,0.9020330837,0.5719244091,9.9691013519
1520531127634543567,0.0205050721,0.0329743201,-0.0057658005,0.9693768756,0.6030968151,9.9649290340
1520531127639558567,0.0167354446,0.0279974534,0.0023197848,0.9838076881,0.6654509932,9.8554862360
1520531127644572567,0.0179993600,0.0282660204,0.0109771429,0.8563355106,0.6822488871,9.8450891617
1520531127649589567,0.0195191612,0.0361296228,0.0126576412,0.7745609061,0.6786578347,9.8226457345
1520531127654605567,0.0225511541,0.0469062043,0.0148986619,0.7661429321,0.6510782606,9.7681337988
1520531127659620567,0.0288512236,0.0600216978,0.0147164868,0.7589275258,0.6726633502,9.7100757834
1520531127664635567,0.0391693065,0.0725625535,0.0120874848,0.7601300935,0.6918495033,9.6693703305
1520531127669651567,0.0477275488,0.0842271095,0.0099961725,0.6843683276,0.6846605613,9.6526826058
1520531127674666567,0.0613026214,0.0909481104,0.0048817283,0.6735452182,0.6546828937,9.6411957452
1520531127679682567,0.0743739987,0.0976725566,-0.0015845118,0.7589275258,0.6510788226,9.6194496030
1520531127684697567,0.0897107113,0.1049711883,-0.0045334096,0.7986122603,0.6330886254,9.5993244290
1520531127689713567,0.1027842330,0.1090542345,-0.0039854643,0.7938019895,0.6031104895,9.6226433618
1520531127694728567,0.1123347803,0.1113956079,-0.0064203281,0.7637377967,0.5851257246,9.7263843403
1520531127699745567,0.1206278612,0.1113981285,-0.0061651841,0.7673454998,0.5851254437,9.7414570965
1520531127704761567,0.1291740443,0.1125655573,-0.0056310686,0.8106379375,0.5755289485,9.7329100615
1520531127709776567,0.1349587513,0.1140152748,-0.0021135911,0.7853840155,0.6282930940,9.7737794552
1520531127714791567,0.1435109601,0.1189677886,-0.0004683919,0.7384838747,0.6474829935,9.7858386825
1520531127719807567,0.1485440169,0.1230440421,0.0014472181,0.6903811662,0.6450884591,9.8037413827
1520531127724823567,0.1525681383,0.1242053281,0.0036130100,0.6278476451,0.6139156784,9.7892725771
1520531127729839567,0.1528244435,0.1244815140,0.0092962302,0.6074039940,0.5971293047,9.8534058513
1520531127734855567,0.1555949327,0.1285597951,0.0101338571,0.5713269626,0.5863398507,9.8177410644
1520531127739869567,0.1518267244,0.1288467891,0.0112252647,0.5220216864,0.5611617418,9.8089483762
1520531127744885567,0.1465458854,0.1262222608,0.0112150581,0.4390445142,0.5323888342,9.8155948090
1520531127749902567,0.1420174491,0.1233102854,0.0098484988,0.4318291079,0.4952160430,9.8517277515
1520531127754917567,0.1342225711,0.1218590519,0.0066053010,0.4414496496,0.5024101363,9.8307085038
1520531127759932567,0.1229166760,0.1238950415,0.0063713193,0.5256293895,0.5431743545,9.8426329758
1520531127764947567,0.1103560862,0.1256318700,0.0088429070,0.6122142648,0.6079211938,9.8591592268
1520531127769963567,0.1003060226,0.1262070587,0.0102187516,0.6001885877,0.6990568026,9.8684845592
1520531127774979567,0.0884886423,0.1215402788,0.0102051182,0.5400602021,0.7038580473,9.8992808774
1520531127779994567,0.0741558547,0.1154170486,0.0096439449,0.5508833115,0.6690821321,9.9178037460
1520531127785010567,0.0618372841,0.1116234970,0.0099084601,0.5568961500,0.6726790851,9.9223902886
1520531127790025567,0.0500227186,0.1087035675,0.0104492570,0.5412627698,0.6798751452,9.8865089757
1520531127795040567,0.0382121088,0.1072340047,0.0134360824,0.5280345249,0.6702830521,9.8727013586
1520531127800057567,0.0274066081,0.1063505185,0.0153433036,0.5136037124,0.6882712823,9.8879321506
1520531127805073567,0.0178630117,0.1089619536,0.0180865058,0.4871472227,0.7266458364,9.9067465462
1520531127810088567,0.0078202911,0.1133178569,0.0221967094,0.4943626290,0.7878014360,9.9112652554
1520531127815103567,0.0000401381,0.1176717324,0.0273848961,0.4570830299,0.8381682373,9.9255247273
1520531127820120567,-0.0072431371,0.1176543086,0.0328093490,0.4294239725,0.8633523404,9.9443636908
1520531127825136567,-0.0150290100,0.1176366879,0.0382347354,0.4149931599,0.8309766728,9.9724271785
1520531127830151567,-0.0218124122,0.1167504064,0.0417577643,0.3729032900,0.8345773722,9.9251854453
1520531127835166567,-0.0298569700,0.1132448140,0.0439103896,0.3512570711,0.8129945305,9.9149578889
1520531127840182567,-0.0351325361,0.1120662819,0.0479694869,0.3897392379,0.8189872355,9.9145774804
1520531127845196567,-0.0401618137,0.1091482822,0.0487682282,0.3608776128,0.8010023770,9.9183623737
1520531127850214567,-0.0421715496,0.1076818308,0.0520073973,0.4186008630,0.7662228090,9.9120237220
1520531127855230567,-0.0451892055,0.1053459309,0.0533479427,0.4642984361,0.7638209691,9.8767169499
1520531127860245567,-0.0502174285,0.1027171305,0.0549605448,0.4823369518,0.7422350365,9.9207238925
1520531127865259567,-0.0504760742,0.0974728390,0.0546504501,0.4727164101,0.7122572752,9.8778474401
1520531127870276567,-0.0497303636,0.0904755351,0.0562189713,0.4642984361,0.6810802799,9.8709869146
1520531127875292567,-0.0492392017,0.0831962178,0.0542686394,0.4173982953,0.7074650219,9.8876877017
1520531127880307567,-0.0482456618,0.0759178259,0.0520468282,0.4727164101,0.6858761859,9.8743867337
1520531127885322567,-0.0442319687,0.0689181598,0.0549620115,0.4859446550,0.6546975047,9.8859098204
1520531127890338567,-0.0382139106,0.0581341962,0.0567623772,0.5039831707,0.6654883636,9.9112908875
1520531127895353567,-0.0306773725,0.0537547271,0.0610437636,0.4895523581,0.6714851896,9.9276955169
1520531127900369567,-0.0251600184,0.0450131720,0.0617784408,0.4715138424,0.6846771392,9.9464525333
1520531127905384567,-0.0206450488,0.0365545949,0.0654932128,0.4065751859,0.7050675840,10.0133069329
1520531127910400567,-0.0138681232,0.0292668125,0.0675894013,0.4161957276,0.6990711326,10.0364620183
1520531127915415567,-0.0078459721,0.0219816486,0.0686048064,0.4149931599,0.7194566135,10.0527238599
1520531127920432567,-0.0020737125,0.0155698113,0.0698978934,0.4775266810,0.7254474453,10.0695415096
1520531127925446567,0.0036999075,0.0088607620,0.0733531245,0.4727164101,0.7086598540,10.0998204434
1520531127930463567,0.0084669678,0.0009850524,0.0770718760,0.5316422281,0.7206466689,10.1492073922
1520531127935479567,0.0147421740,-0.0063058406,0.0802511815,0.4883497904,0.7542259725,10.1542446086
1520531127940494567,0.0190044374,-0.0156379413,0.0836892051,0.4763241133,0.7854045601,10.2170870299
1520531127945508567,0.0217604524,-0.0220487747,0.0841762551,0.5593012855,0.7518221657,10.2604735927
1520531127950526567,0.0215017636,-0.0270002249,0.0833272917,0.5436679052,0.7590182258,10.3071045006
1520531127955541567,0.0247661824,-0.0296250478,0.0846539460,0.5568961500,0.7602163360,10.3244067350
1520531127960556567,0.0255109718,-0.0363265966,0.0846014148,0.5268319572,0.7398332903,10.3084492248
1520531127965571567,0.0262586701,-0.0389400208,0.0813334561,0.4775266810,0.6762826879,10.3206125466
1520531127970587567,0.0244955835,-0.0386347569,0.0759280284,0.4727164101,0.6475036924,10.3009309838
1520531127975603567,0.0222235716,-0.0400648852,0.0656403694,0.4270188370,0.6091347579,10.3107103464
1520531127980619567,0.0187019694,-0.0377133344,0.0575483113,0.4366393787,0.5779563576,10.3420249955
1520531127985635567,0.0151818217,-0.0333177214,0.0478485395,0.4486650559,0.5467777700,10.3035875973
1520531127990649567,0.0071428702,-0.0257193792,0.0384521685,0.4835395195,0.5287879475,10.2811849556
1520531127995665567,0.0008651197,-0.0175419493,0.0306802520,0.5015780352,0.5347822447,10.3391107308
1520531128000681567,-0.0046601888,-0.0114082863,0.0245146491,0.4871472227,0.5539696154,10.2695038448
1520531128005697567,-0.0119479803,-0.0090691389,0.0204877803,0.5015780352,0.5635616149,10.2681918854
1520531128010713567,-0.0182294748,-0.0052697612,0.0153879765,0.5316422281,0.5335807628,10.2714149244
1520531128015727567,-0.0250118969,-0.0008907251,0.0113757358,0.5388576343,0.5119956732,10.2969329091
1520531128020744567,-0.0297794434,0.0058158042,0.0090008215,0.5376550666,0.4748224138,10.2795487044
1520531128025760567,-0.0363012870,0.0157254173,0.0071947199,0.5124011447,0.4388501679,10.2995860380
1520531128030775567,-0.0443285949,0.0262121097,0.0072896861,0.5136037124,0.4820191295,10.2902350851
1520531128035791567,-0.0500935939,0.0384538229,0.0052294232,0.5941757491,0.5227836287,10.2696546415
1520531128040806567,-0.0576231811,0.0477861005,0.0012563752,0.5833526397,0.5731483694,10.2848187462
1520531128045821567,-0.0674105923,0.0576900631,0.0010796164,0.6170245357,0.6163148022,10.3146646512
1520531128050837567,-0.0754421225,0.0655564801,0.0003429372,0.6603169733,0.6426925197,10.3583790140
1520531128055853567,-0.0819786598,0.0649777071,-0.0020842873,0.7108248173,0.6139092158,10.3555911778
1520531128060869567,-0.0907677012,0.0675872523,0.0014691525,0.7348761716,0.6139073426,10.3902213953
1520531128065883567,-0.1003138459,0.0696217458,0.0020435413,0.6663298119,0.5983238558,10.4676052859
1520531128070900567,-0.1106238723,0.0649570135,0.0014860158,0.5977834523,0.5719481051,10.4787574952
1520531128075915567,-0.1229381775,0.0634908960,0.0031210452,0.5989860200,0.6031256624,10.4996339785
1520531128080931567,-0.1360010082,0.0672752320,0.0026331231,0.5556935823,0.6055273150,10.4826208625
1520531128085946567,-0.1480519122,0.0760134988,0.0021811266,0.5292370926,0.5983345330,10.4782368140
1520531128090962567,-0.1585955525,0.0838760175,0.0025312982,0.5629089886,0.5887387871,10.4732698513
1520531128095977567,-0.1701461955,0.0891098542,0.0050276961,0.5532884469,0.5935360981,10.4419809277
1520531128100992567,-0.1827102588,0.0891020176,0.0061332158,0.6579118379,0.6642772347,10.4687850516
1520531128106008567,-0.1952689629,0.0899544945,0.0123857768,0.6735452182,0.6678734384,10.5011694086
1520531128111024567,-0.2065745640,0.0870136374,0.0207714713,0.6687349473,0.6187090556,10.5117234673
1520531128116039567,-0.2166322449,0.0797112458,0.0258749351,0.6627221088,0.6402940516,10.4757344819
1520531128121056567,-0.2264402069,0.0727068931,0.0285452422,0.6037962908,0.6007270069,10.4321851476
1520531128126070567,-0.2367503706,0.0659937280,0.0312187059,0.5929731814,0.5743467606,10.3951276120
1520531128131087567,-0.2437876670,0.0633597693,0.0344583171,0.6049988586,0.5419690325,10.4333928841
1520531128136101567,-0.2523309921,0.0636463495,0.0350175006,0.6182271034,0.4796127002,10.4356492221
1520531128141118567,-0.2603671445,0.0671376279,0.0358707505,0.5881629106,0.4292511440,10.3964780663
1520531128146133567,-0.2704116175,0.0729628371,0.0353927893,0.5869603429,0.3704933569,10.3698177580
1520531128151150567,-0.2781990624,0.0761701138,0.0335378904,0.6206322388,0.3584993302,10.3427723989
1520531128156164567,-0.2847262770,0.0808289780,0.0338561405,0.6110116971,0.3704914837,10.3579622173
1520531128161181567,-0.2907511135,0.0854887675,0.0339029112,0.6254425097,0.3620963768,10.3334249190
1520531128166195567,-0.2982839704,0.0872217376,0.0385295316,0.6374681868,0.3752859848,10.3530514529
1520531128171212567,-0.3048140509,0.0874996359,0.0426020780,0.6386707545,0.3513030827,10.3960624610
1520531128176227567,-0.3115942423,0.0886515892,0.0466817603,0.6074039940,0.3477080966,10.3847488609
1520531128181243567,-0.3186254228,0.0906805114,0.0496863950,0.6134168325,0.3417119262,10.4160740691
1520531128186259567,-0.3228886193,0.0959179317,0.0518987120,0.7036094110,0.3081289698,10.3826889006
1520531128191274567,-0.3276610114,0.0967865725,0.0532669784,0.7420915778,0.3572907301,10.3601856608
1520531128196289567,-0.3306780950,0.0950341701,0.0543414242,0.7505095518,0.3896668659,10.3333428423
1520531128201306567,-0.3347016950,0.0918222660,0.0562182591,0.8034225312,0.3920610257,10.2712318515
1520531128206321567,-0.3384790967,0.0859930986,0.0561807982,0.8238661823,0.3848645909,10.2687155937
1520531128211336567,-0.3384815195,0.0830741543,0.0580523887,0.7901942863,0.3728758092,10.2492985815
1520531128216350567,-0.3387393733,0.0784126319,0.0577467401,0.7877891509,0.3596854518,10.1621740577
1520531128221368567,-0.3349743327,0.0757945617,0.0566375479,0.7841814478,0.3033261329,10.1622641319
1520531128226383567,-0.3317113213,0.0722963136,0.0576869871,0.7986122603,0.3225112558,10.1388620827
1520531128231399567,-0.3279453123,0.0705531254,0.0563139182,0.7865865832,0.3404992987,10.0204229098
1520531128236414567,-0.3199082387,0.0667660918,0.0570817207,0.7745609061,0.3596864821,10.0088998114
1520531128241430567,-0.3123754328,0.0623990060,0.0567638268,0.7541172550,0.3704803381,9.9881696821
1520531128246445567,-0.3025797966,0.0577363227,0.0583333306,0.7192427913,0.3405045437,9.9362418843
1520531128251461567,-0.2910242727,0.0551205762,0.0574802159,0.7697506352,0.3189160824,9.8637183949
1520531128256477567,-0.2819788360,0.0536650127,0.0582639361,0.7012042756,0.2781506466,9.8144531506
1520531128261492567,-0.2734331391,0.0536632612,0.0601418888,0.6783554890,0.2469747751,9.7984359341
1520531128266511567,-0.2603670936,0.0533806385,0.0587626666,0.6350630514,0.2193979171,9.7919113473
1520531128271524567,-0.2490554747,0.0571796237,0.0563356511,0.6422784577,0.1606394744,9.7128726256
1520531128276539567,-0.2367363278,0.0630201513,0.0533812385,0.6074039940,0.1174731353,9.7190648883
1520531128281555567,-0.2249249260,0.0650724832,0.0503988593,0.6314553482,0.1198695430,9.7037205771
1520531128286570567,-0.2133697472,0.0647994678,0.0452347949,0.6374681868,0.1294621980,9.6327619159
1520531128291586567,-0.2033192916,0.0630521851,0.0462849710,0.6398733222,0.1450508362,9.5711296748
1520531128296600567,-0.1892521830,0.0610274766,0.0427261763,0.6482912962,0.1498467423,9.5152601522
1520531128301617567,-0.1761924258,0.0572533386,0.0394264558,0.6579118379,0.1702313802,9.4547151474
1520531128306633567,-0.1641358019,0.0528865681,0.0396412527,0.6723426505,0.2038061882,9.4405962177
1520531128311648567,-0.1528333842,0.0476424349,0.0409329641,0.6819631922,0.2253899665,9.4323465215
1520531128316663567,-0.1390180253,0.0412286492,0.0441049372,0.7048119787,0.2193924848,9.4321299721
1520531128321679567,-0.1267080404,0.0362697385,0.0478319178,0.7156350881,0.2421753100,9.4552452883
1520531128326696567,-0.1143978400,0.0298466209,0.0542532420,0.7853840155,0.2469664394,9.4510752858
1520531128331711567,-0.1010867096,0.0210964631,0.0593021852,0.7408890101,0.2517664665,9.4247743845
1520531128336727567,-0.0905384118,0.0143892845,0.0627485485,0.7541172550,0.2085963810,9.4212012933
1520531128341742567,-0.0777178317,0.0117456214,0.0724443901,0.7084196819,0.1918119741,9.3426366673
1520531128346756567,-0.0656551037,0.0076512963,0.0796956033,0.6879760307,0.2277877790,9.3044498226
1520531128351774567,-0.0515871287,0.0012332384,0.0844903851,0.6567092702,0.2002099845,9.2071609567
1520531128356789567,-0.0407828237,-0.0016843860,0.0874240900,0.5953783168,0.1594439867,9.1601497700
1520531128361805567,-0.0307322819,-0.0040173514,0.0895520035,0.5568961500,0.1594469839,9.1512271802
1520531128366819567,-0.0191672589,-0.0011033478,0.0911760405,0.5725295303,0.1354629578,9.1208826584
1520531128371837567,-0.0075999464,0.0041446458,0.0917356786,0.5761372334,0.0695099535,9.1209118569
1520531128376852567,0.0014552952,0.0076324212,0.0963448338,0.6182271034,0.0635109733,9.0995894354
1520531128381867567,0.0120170949,0.0090759966,0.1028294483,0.6747477859,0.0611082905,9.1002037804
1520531128386883567,0.0213239842,0.0116846179,0.1093252888,0.6543041348,0.0395253551,9.0585866321
1520531128391898567,0.0298709514,0.0105078586,0.1147114458,0.6518989994,0.0347289807,9.0249125449
1520531128396913567,0.0356469903,0.0052542751,0.1187188841,0.6230373742,0.0551166157,8.9810121172
1520531128401929567,0.0409219252,0.0002882371,0.1240822084,0.5857577751,0.0455263958,8.9325742826
1520531128406945567,0.0479614091,-0.0000120456,0.1283956514,0.5436679052,0.0059580399,8.9028068050
1520531128411961567,0.0555050353,0.0026097267,0.1297543869,0.5148062801,-0.0408061888,8.8601340043
1520531128416976567,0.0602844646,0.0061082117,0.1297721962,0.4510701913,-0.0947625438,8.8352398255
1520531128421993567,0.0617966563,0.0090211908,0.1303327185,0.4366393787,-0.1511210198,8.8528674045
1520531128427007567,0.0660683444,0.0101949586,0.1278987635,0.4991728998,-0.1535241710,8.8836389670
1520531128432023567,0.0678294591,0.0113597290,0.1284454806,0.5460730406,-0.1031639259,8.8261883038
1520531128437038567,0.0698444640,0.0128086981,0.1316994129,0.5593012855,-0.0575976201,8.8353122649
1520531128442054567,0.0713575770,0.0154259221,0.1338809875,0.5412627698,-0.0108297387,8.8261450849
1520531128447068567,0.0738679269,0.0139721693,0.1330535672,0.5364524989,0.0815044485,8.8353990176
1520531128452086567,0.0748690803,0.0131078792,0.1295279344,0.5003754675,0.1522565433,8.8856533683
1520531128457101567,0.0768777185,0.0145779728,0.1249360358,0.5340473635,0.2206049250,8.9317447326
1520531128462117567,0.0753737166,0.0201260714,0.1203817945,0.5328447958,0.2529818101,8.9142927062
1520531128467132567,0.0711082855,0.0271270959,0.1169259862,0.5256293895,0.3333247804,8.9770403643
1520531128472148567,0.0668414941,0.0344253324,0.1113080339,0.5388576343,0.3537091373,8.9710810101
1520531128477164567,0.0605694086,0.0428766645,0.1100314419,0.5496807438,0.3285263455,8.9431087659
1520531128482180567,0.0565594476,0.0498639473,0.1117155389,0.5713269626,0.3237280979,8.9510377599
1520531128487195567,0.0492778935,0.0530604944,0.1139178950,0.5605038532,0.2817590261,8.9174818576
1520531128492211567,0.0379748955,0.0547941730,0.1177398786,0.5965808846,0.2265957568,8.9090494878
1520531128497225567,0.0274290402,0.0553465834,0.1275035794,0.5869603429,0.2122068210,8.8684821219
1520531128502242567,0.0171285010,0.0518211658,0.1366945985,0.6025937231,0.2038116204,8.7893123527
1520531128507257567,0.0058169213,0.0462658606,0.1420842803,0.5400602021,0.1774354014,8.7736767257
1520531128512273567,-0.0080080035,0.0386618665,0.1504390727,0.4895523581,0.1990238628,8.6835000616
1520531128517288567,-0.0183225267,0.0272799931,0.1555118800,0.4282214047,0.1930329373,8.6469142596
1520531128522304567,-0.0291407022,0.0156087235,0.1597717600,0.4258162693,0.1366735247,8.6179390298
1520531128527319567,-0.0409635476,0.0033499205,0.1656523362,0.3572699097,0.1222891783,8.5674859161
1520531128532334567,-0.0512769261,-0.0068649580,0.1701929441,0.3368262586,0.1043036641,8.5618917224
1520531128537350567,-0.0623407197,-0.0124085098,0.1712534249,0.3151800397,0.0815216820,8.5098281529
1520531128542367567,-0.0741616205,-0.0199905918,0.1717586524,0.3260031491,0.0407500646,8.4574660870
1520531128547381567,-0.0859743945,-0.0261361472,0.1798502805,0.3320159877,0.0215633496,8.4423183997
1520531128552398567,-0.0927669861,-0.0316751115,0.1798206434,0.3272057169,-0.0156096289,8.4203207343
1520531128557413567,-0.1035797906,-0.0380956321,0.1819561718,0.2827107115,-0.0132078826,8.3649685730
1520531128562428567,-0.1096149260,-0.0424753189,0.1843689399,0.2670773312,0.0107761434,8.3081522981
1520531128567445567,-0.1146458737,-0.0459731739,0.1840810515,0.2730901698,0.0191696581,8.3080855875
1520531128572460567,-0.1171675300,-0.0526774594,0.1845756795,0.2490388155,0.0827259737,8.3489327520
1520531128577475567,-0.1229526839,-0.0570526771,0.1853647056,0.2851158469,0.1186973766,8.3659786795
1520531128582490567,-0.1267250243,-0.0585081628,0.1842784074,0.2574567895,0.1115046882,8.3767142074
1520531128587505567,-0.1269910090,-0.0660696904,0.1788101560,0.1997335393,0.0839289542,8.4005458240
1520531128592522567,-0.1290120788,-0.0695474247,0.1714824736,0.1432128568,0.0767385137,8.4011029777
1520531128597536567,-0.1312848395,-0.0718531635,0.1617292372,0.1865052944,0.0983196695,8.3495262136
1520531128602553567,-0.1262671232,-0.0738726753,0.1549406937,0.1973284039,0.1115093712,8.2913008076
1520531128607569567,-0.1202402951,-0.0726851066,0.1476336455,0.2201771904,0.1354904002,8.1725163414
1520531128612595567,-0.1154700905,-0.0706195061,0.1387123248,0.2177720550,0.1690665193,8.1434534112
1520531128617601567,-0.1056716629,-0.0659251051,0.1281784020,0.2057463779,0.1223009794,8.1041031715
1520531128622616567,-0.0996451837,-0.0638582838,0.1189842018,0.1937207007,0.1007173884,8.0995926944
1520531128627632567,-0.0933669234,-0.0620856623,0.1108694953,0.1756821850,0.1414895677,8.0660263380
1520531128632646567,-0.0853272427,-0.0597346816,0.1046497893,0.1684667787,0.1678712190,8.0742058506
1520531128637663567,-0.0742695571,-0.0559270536,0.0989766897,0.2045438101,0.2014443410,8.1726041935
1520531128642677567,-0.0667321251,-0.0544555224,0.0946450691,0.1901129976,0.2386188181,8.2098970112
1520531128647693567,-0.0596932057,-0.0524123456,0.0943770166,0.1504282631,0.2961806492,8.2485779003
1520531128652710567,-0.0496388806,-0.0521235787,0.0967954838,0.1865052944,0.3345503329,8.3086208153
1520531128657724567,-0.0395866256,-0.0541695302,0.1005488958,0.1660616433,0.3057725550,8.3193071610
1520531128662740567,-0.0310463859,-0.0588363479,0.1034734627,0.1432128568,0.3153674579,8.3764652561
1520531128667756567,-0.0215062708,-0.0661194050,0.1042117878,0.1756821850,0.3225597716,8.4528437046
1520531128672772567,-0.0119644033,-0.0748717682,0.1095382777,0.2322028675,0.3681227057,8.4859513067
1520531128677787567,-0.0014175640,-0.0850864876,0.1170161524,0.2490388155,0.3609265519,8.5194966266
1520531128682802567,0.0091321373,-0.0923837195,0.1231635285,0.2261900290,0.3381446634,8.5708755741
1520531128687819567,0.0189289495,-0.1005626848,0.1320110944,0.2237848935,0.3405431316,8.6011123883
1520531128692834567,0.0284791283,-0.1046594513,0.1398080667,0.1985309716,0.3465408006,8.6176223632
1520531128697849567,0.0410480607,-0.1064239602,0.1476172231,0.1804924559,0.3213602566,8.6677946852
1520531128702865567,0.0531175200,-0.1055647484,0.1549062288,0.1877078622,0.2638009543,8.7177527732
1520531128707881567,0.0624267851,-0.1012078200,0.1614154078,0.1576436693,0.2745955596,8.7145484437
1520531128712896567,0.0747438111,-0.1003361264,0.1641046666,0.1636565079,0.2602054062,8.6715046242
1520531128717913567,0.0908319464,-0.0985902592,0.1673346856,0.1828975913,0.2626021885,8.6515585573
1520531128722928567,0.1028960896,-0.0988842022,0.1700155187,0.2045438101,0.3057695579,8.5734421252
1520531128727944567,0.1187250069,-0.1029661241,0.1732015427,0.2093540810,0.3585313619,8.5442902552
1520531128732959567,0.1360681349,-0.1044344641,0.1799218708,0.2358105707,0.3969017949,8.5649139163
1520531128737974567,0.1536641494,-0.1032736890,0.1842268268,0.2658747635,0.4160857002,8.6168990584
1520531128742991567,0.1667350679,-0.1038651785,0.1893384831,0.3211928783,0.4088865493,8.6709884076
1520531128748004567,0.1855945236,-0.0992145811,0.1963732415,0.3753084254,0.3956917899,8.7622839152
1520531128753022567,0.2039548551,-0.0928195156,0.2047750013,0.3440416648,0.3633174336,8.8044570012
1520531128758037567,0.2177826182,-0.0910789052,0.2096324962,0.2261900290,0.3837119995,8.8369621047
1520531128763052567,0.2331146616,-0.0893260491,0.2101584564,0.1648590756,0.3513399847,8.9363728709
1520531128768068567,0.2507101195,-0.0828948574,0.2050343216,0.1985309716,0.3213588517,8.9442093705
1520531128773084567,0.2625283388,-0.0764746714,0.2031674722,0.2382157061,0.2661953014,8.9508497569
1520531128778100567,0.2756027505,-0.0680041033,0.1975262082,0.2827107115,0.2458064488,8.9492744046
1520531128783115567,0.2876756088,-0.0604241082,0.1978321516,0.3043569303,0.2314150778,8.9397805941
1520531128788130567,0.3020052757,-0.0554613171,0.1964906114,0.3476493680,0.1846452296,8.9579991195
1520531128793146567,0.3150779623,-0.0516681986,0.1964952419,0.3235980137,0.2278161580,8.9616775563
1520531128798161567,0.3266404802,-0.0496239779,0.1964893342,0.3127749043,0.2601937924,9.0035885120
1520531128803178567,0.3374493721,-0.0449466654,0.1924466460,0.2923312532,0.2853773335,9.0444379802
1520531128808194567,0.3480056871,-0.0420214007,0.1897438156,0.2189746227,0.3357469445,9.0881022027
1520531128813208567,0.3573042809,-0.0382144620,0.1840739831,0.2057463779,0.3573325024,9.1962892980
1520531128818225567,0.3608227390,-0.0341162178,0.1776054707,0.1636565079,0.3885134315,9.3361258467
1520531128823241567,0.3653525043,-0.0268181776,0.1733239124,0.1768847527,0.3297545205,9.3953237303
1520531128828255567,0.3646114158,-0.0154457352,0.1701654622,0.1444154245,0.2949819771,9.4212408447
1520531128833271567,0.3628564679,-0.0093135091,0.1650750420,0.1744796173,0.2638019846,9.5116258495
1520531128838287567,0.3603449028,-0.0025871545,0.1556617339,0.1756821850,0.2913821206,9.5441272804
1520531128843302567,0.3555741965,0.0047152557,0.1484214395,0.1792898882,0.2805895758,9.5359676816
1520531128848317567,0.3520550093,0.0070587937,0.1433053863,0.1925181330,0.3081687753,9.5183798719
1520531128853334567,0.3515497810,0.0085308165,0.1376359714,0.2334054352,0.3369449610,9.5260888435
1520531128858350567,0.3487795623,0.0070859226,0.1327601638,0.2803055761,0.3345430275,9.5570125717
1520531128863364567,0.3472595965,0.0033206428,0.1240765953,0.3175851752,0.3153538772,9.5427226969
1520531128868380567,0.3432289241,-0.0010385886,0.1191808905,0.3139774720,0.3249472816,9.6020177991
1520531128873396567,0.3402017729,-0.0074407601,0.1156204867,0.3344211231,0.3741104467,9.6319866130
1520531128878412567,0.3381775276,-0.0161765277,0.1131226148,0.3584724774,0.3920956799,9.6607885706
1520531128883428567,0.3323816004,-0.0263699663,0.1103500825,0.3957520765,0.4256687083,9.6906087152
1520531128888443567,0.3270896313,-0.0368604200,0.1097387608,0.4522727590,0.4592402381,9.7004851316
1520531128893458567,0.3202976943,-0.0438650481,0.1129445591,0.5027806029,0.4616345852,9.7453147948
1520531128898473567,0.3145127521,-0.0511679512,0.1188517263,0.5472756083,0.4412457326,9.7321180030
1520531128903490567,0.3069672676,-0.0590521273,0.1239460767,0.5388576343,0.4220601415,9.7031650490
1520531128908506567,0.2971560046,-0.0689725106,0.1274057907,0.5833526397,0.4148618335,9.7097118416
1520531128913520567,0.2880990301,-0.0800646925,0.1332901252,0.6314553482,0.3980701212,9.6941521387
1520531128918536567,0.2792988940,-0.0885408711,0.1416289138,0.5905680460,0.3752896376,9.6271679787
1520531128923552567,0.2732694274,-0.0911831772,0.1481132089,0.6362656191,0.3465067083,9.5407525981
1520531128928568567,0.2647301403,-0.0914953915,0.1546199559,0.5941757491,0.2865529653,9.5028699916
1520531128933582567,0.2556967863,-0.0871529347,0.1638686647,0.5761372334,0.2589741404,9.4426409766
1520531128938599567,0.2491827952,-0.0799036607,0.1761109419,0.5833526397,0.2529778764,9.3891179711
1520531128943614567,0.2406555633,-0.0711822263,0.1824160587,0.5208191186,0.3165371891,9.4198804018
1520531128948629567,0.2311280170,-0.0598430956,0.1903663255,0.4498676236,0.2925599066,9.4229186749
1520531128953646567,0.2178330113,-0.0473413604,0.1988735772,0.4390445142,0.3261366814,9.4880713403
1520531128958661567,0.2027734604,-0.0380419021,0.2060069127,0.4402470819,0.3129460431,9.5775575824
1520531128963676567,0.1894713273,-0.0307850884,0.2144741489,0.4426522173,0.3021535919,9.6344897501
1520531128968693567,0.1706368799,-0.0264450144,0.2231999681,0.4294239725,0.3093494647,9.6880701116
1520531128973709567,0.1530589737,-0.0209338111,0.2300385247,0.4402470819,0.2853658133,9.6845017210
1520531128978723567,0.1357306962,-0.0160023646,0.2357899849,0.4330316756,0.2505913030,9.6892544380
1520531128983738567,0.1171519502,-0.0072863253,0.2426548624,0.4330316756,0.2278076350,9.6520880489
1520531128988755567,0.1030893265,-0.0029349111,0.2478547172,0.3969546442,0.1642560023,9.6176368570
1520531128993770567,0.0890294314,0.0037490362,0.2525312649,0.3741058577,0.1031016203,9.5830545707
1520531128998785567,0.0769825733,0.0148154655,0.2531792366,0.3043569303,0.0599379973,9.5907484239
1520531129003802567,0.0651852576,0.0258878207,0.2516623745,0.2791030083,0.0395545770,9.5898519649
1520531129008818567,0.0533921682,0.0410439299,0.2485533602,0.3296108523,0.0227626773,9.5487016849
1520531129013832567,0.0423532810,0.0556139233,0.2467912290,0.3656878837,0.0839160291,9.6505595649
1520531129018849567,0.0308130703,0.0704721905,0.2461144379,0.3500545034,0.0911120892,9.6448939948
1520531129023863567,0.0187645891,0.0821294016,0.2437908510,0.2526465187,0.0755308502,9.7004780717
1520531129028880567,0.0059577696,0.0911667703,0.2403664729,0.2201771904,0.0383600259,9.7763697147
1520531129033896567,-0.0058402870,0.1042904721,0.2345364380,0.1708719142,0.0119827766,9.8686847199
1520531129038910567,-0.0161221923,0.1232409983,0.2292891563,0.1359974505,-0.0060016136,9.8957710176
1520531129043926567,-0.0289107545,0.1453892139,0.2265059088,0.0662485231,-0.0383729727,9.8871843314
1520531129048940567,-0.0401862859,0.1722038148,0.2224027009,0.1059332577,-0.0827442592,9.9437863838
1520531129053958567,-0.0479513296,0.1946548537,0.2160952453,0.1023255545,-0.1163199101,9.9612863998
1520531129058973567,-0.0554634553,0.2150517306,0.2151826794,0.1540359662,-0.1439041672,9.8655141729
1520531129063988567,-0.0622237937,0.2348705045,0.2126409918,0.1696693465,-0.1403079635,9.8444399080
1520531129069005567,-0.0677348515,0.2500305319,0.2089792176,0.1215666379,-0.1127239874,9.8506919352
1520531129074021567,-0.0707266327,0.2686830592,0.2072332745,0.1841001590,-0.0671615216,9.8488766934
1520531129079036567,-0.0724610533,0.2829427295,0.2138385742,0.2057463779,-0.0167993097,9.8579140418
1520531129084051567,-0.0742081408,0.2893415735,0.2179489376,0.2033412424,0.0671407073,9.8845849091
1520531129089068567,-0.0734460664,0.2934125110,0.2212252114,0.1624539402,0.0623473300,9.8675553991
1520531129094083567,-0.0711705692,0.3009777400,0.2256075454,0.1456179922,0.0491580966,9.9002721633
1520531129099097567,-0.0686547269,0.3009692549,0.2291199748,0.1432128568,0.0323703180,9.8712583453
1520531129104114567,-0.0636297226,0.2986328635,0.2317983146,0.1047306900,0.0143862088,9.9227847812
1520531129109129567,-0.0578437416,0.3003710518,0.2364001988,0.0854896066,-0.0275822075,9.9346344285
1520531129114144567,-0.0508035951,0.3015320624,0.2391014818,0.0554254137,-0.0155884618,9.9825632637
1520531129119161567,-0.0417619416,0.2974547665,0.2395946484,0.0662485231,-0.0455678153,9.9697035681
1520531129124176567,-0.0309498507,0.2997798783,0.2433800065,0.0421971689,-0.0503625038,9.9548344752
1520531129129191567,-0.0211453269,0.3018197676,0.2447300954,0.0842870388,-0.0479675010,9.9846382024
1520531129134207567,-0.0068172478,0.3041535420,0.2458034604,0.0890973097,-0.0395738927,10.0008532121
1520531129139223567,0.0090129476,0.3018235695,0.2476500934,0.1143512317,-0.0371775787,9.9715514684
1520531129144238567,0.0271000729,0.2930709117,0.2543134442,0.0951101483,-0.0335786589,9.9787081050
1520531129149254567,0.0439250353,0.2825803809,0.2569076016,0.0638433877,-0.0275805216,10.0394380754
1520531129154270567,0.0630107148,0.2697523757,0.2621852328,0.0229560855,-0.0191833542,10.0956107718
1520531129159286567,0.0868748553,0.2595479735,0.2677445499,-0.0323620293,-0.0515558373,10.1972873005
1520531129164300567,0.1077180898,0.2467257565,0.2711250928,-0.0095132428,-0.0683455828,10.2784313520
1520531129169317567,0.1278100663,0.2353579815,0.2753297889,-0.0022978365,-0.1079177787,10.4015869690
1520531129174332567,0.1491593759,0.2257441049,0.2776516687,-0.0900852795,-0.1270971883,10.5082152474
1520531129179348567,0.1694984329,0.2132196314,0.2786004550,-0.0744518993,-0.1438863718,10.5580516424
1520531129184363567,0.1893348961,0.2021584395,0.2771263772,-0.1273648786,-0.1510770933,10.6515451973
1520531129189379567,0.2086743875,0.1931272728,0.2791858910,-0.1261623109,-0.1306917998,10.7096208112
1520531129194395567,0.2260047623,0.1843837893,0.2823335453,-0.1850881289,-0.1043061211,10.7543301037
1520531129199410567,0.2418208873,0.1747830437,0.2789842292,-0.2548370562,-0.1246860760,10.8863511426
1520531129204426567,0.2576333545,0.1602185632,0.2793847631,-0.2921166553,-0.1390728576,10.9587809566
1520531129209441567,0.2739460907,0.1450766096,0.2778860962,-0.2873063845,-0.1510646365,11.0226637472
1520531129214456567,0.2864865295,0.1281863288,0.2758399998,-0.3221808481,-0.1738455884,11.1136726398
1520531129219472567,0.3007851781,0.1098361724,0.2751322504,-0.3209782804,-0.1714474012,11.1252800356
1520531129224488567,0.3153399163,0.0932264089,0.2774133777,-0.3486373378,-0.1462632982,11.2394148032
1520531129229504567,0.3268744071,0.0739966453,0.2783273683,-0.4304119423,-0.1642440356,11.3215783640
1520531129234518567,0.3386660029,0.0585527937,0.2800814301,-0.4821223540,-0.1354606381,11.3882958226
1520531129239534567,0.3527185001,0.0439905377,0.2794030475,-0.4616787028,-0.1426570729,11.4299410351
1520531129244550567,0.3617530223,0.0332048419,0.2822799962,-0.5049711405,-0.1618399479,11.5512440978
1520531129249566567,0.3715421898,0.0232950519,0.2846211222,-0.4905403280,-0.1870230207,11.5848303679
1520531129254581567,0.3818337315,0.0119227086,0.2891145664,-0.4749069477,-0.2074096255,11.5928330886
1520531129259598567,0.3916212642,-0.0017867352,0.2957555266,-0.4725018123,-0.2122063745,11.6300029624
1520531129264612567,0.4026566740,-0.0195648720,0.2985753874,-0.5230096562,-0.2325878280,11.7176752501
1520531129269629567,0.4091682226,-0.0370504828,0.3003236888,-0.5699097970,-0.2781515113,11.7379326294
1520531129274644567,0.4141724683,-0.0519040256,0.2983071557,-0.5650995262,-0.3501003114,11.7821174398
1520531129279659567,0.4219486577,-0.0606352250,0.2955205357,-0.5458584427,-0.3788811801,11.7982282384
1520531129284675567,0.4249507457,-0.0673213190,0.2900528862,-0.5109839791,-0.4136589685,11.8630027640
1520531129289691567,0.4239381604,-0.0722730645,0.2892053229,-0.5049711405,-0.4112611559,11.8641040440
1520531129294705567,0.4254393593,-0.0751775779,0.2859337410,-0.5121865468,-0.3800829430,11.9176024934
1520531129299723567,0.4229156408,-0.0812896248,0.2829157186,-0.4111708589,-0.3477140190,11.9712084624
1520531129304737567,0.4178871512,-0.0850883339,0.2861427037,-0.4111708589,-0.3249303509,12.0211584350
1520531129309753567,0.4151210489,-0.0906446621,0.2931397923,-0.4568684320,-0.3033422642,12.1366344305
1520531129314767567,0.4103410002,-0.0958972817,0.2952730117,-0.4737043800,-0.2829555658,12.2134799235
1520531129319784567,0.4010402541,-0.0999897776,0.2987762539,-0.5181993853,-0.2505753089,12.3207986822
1520531129324800567,0.3887291127,-0.1005882974,0.3028528656,-0.5458584427,-0.2673611207,12.4268393691
1520531129329816567,0.3769223763,-0.0985583322,0.3047841845,-0.6132022347,-0.2769489991,12.4612063816
1520531129334832567,0.3613501209,-0.0921525199,0.3043209374,-0.6985845423,-0.2745440684,12.4910887008
1520531129339847567,0.3477859314,-0.0848601116,0.2995318915,-0.7478898185,-0.2577522624,12.5310651318
1520531129344862567,0.3319611110,-0.0758159116,0.2931371092,-0.7057999486,-0.2289761704,12.5306273907
1520531129349878567,0.3118647358,-0.0673605250,0.2883690904,-0.7009896777,-0.1762143664,12.5526098547
1520531129354894567,0.2925110879,-0.0650144485,0.2800358900,-0.6625075109,-0.1630268188,12.5417631345
1520531129359910567,0.2759225661,-0.0609138828,0.2698170729,-0.6444689952,-0.1534351004,12.5287946205
1520531129364924567,0.2555613470,-0.0603165073,0.2614724008,-0.6480766983,-0.1498373981,12.5590419704
1520531129369941567,0.2374579480,-0.0617542952,0.2517552372,-0.6252279118,-0.1546357393,12.5716078352
1520531129374956567,0.2183516863,-0.0611513284,0.2415144103,-0.6119996670,-0.2014032461,12.4983096147
1520531129379972567,0.1982478388,-0.0555981321,0.2323954264,-0.6107970992,-0.2373775525,12.4936844140
1520531129384987567,0.1788965275,-0.0497474286,0.2211128981,-0.6444689952,-0.2949336703,12.4940682839
1520531129390002567,0.1575360604,-0.0418527219,0.2079558440,-0.6300381827,-0.2889390921,12.4985705523
1520531129395018567,0.1381855018,-0.0336629294,0.1937150956,-0.6396587244,-0.2697520961,12.4614568768
1520531129400035567,0.1155666941,-0.0266406833,0.1797420682,-0.6733306203,-0.2865374395,12.4362338222
1520531129405050567,0.0911923974,-0.0187529856,0.1687549819,-0.7106102194,-0.2997250807,12.4435824054
1520531129410066567,0.0653082457,-0.0102736400,0.1542580455,-0.6601023755,-0.2961315932,12.3721965038
1520531129415079567,0.0404339898,-0.0009314018,0.1440946458,-0.7226358966,-0.2937284420,12.3298035017
1520531129420096567,0.0148097068,0.0104465905,0.1353009373,-0.7298513028,-0.2949270205,12.2857134311
1520531129425113567,-0.0133240909,0.0235682633,0.1278779641,-0.6877614329,-0.3249088091,12.2411715174
1520531129430128567,-0.0397044305,0.0317334461,0.1217666608,-0.6733306203,-0.3093211076,12.1956922411
1520531129435144567,-0.0643259410,0.0401928880,0.1148426759,-0.7226358966,-0.2745421952,12.1380310398
1520531129440160567,-0.0896939226,0.0503835877,0.1141559852,-0.7695360374,-0.2049883979,12.1767704659
1520531129445173567,-0.1173222726,0.0620325093,0.1126729728,-0.8404875324,-0.1282378849,12.2192234088
1520531129450190567,-0.1396706146,0.0774795100,0.1082330545,-0.9186544338,-0.0874610226,12.3245374358
1520531129455206567,-0.1652860139,0.0940965964,0.1016437287,-0.9463134912,-0.0239044260,12.4607155198
1520531129460220567,-0.1924101314,0.1095453686,0.0958599486,-0.9571366006,0.0300577360,12.5723340646
1520531129465236567,-0.2187841787,0.1226655453,0.0892453460,-0.8813748347,0.0768183120,12.7133326043
1520531129470253567,-0.2481762740,0.1346219161,0.0815452682,-0.8561209127,0.1499639109,12.7780955298
1520531129475269567,-0.2727906611,0.1468628010,0.0770850964,-0.8104233396,0.2530864283,12.8472788118
1520531129480285567,-0.2961528704,0.1541426284,0.0755608034,-0.6889640006,0.4101643641,12.8308355462
1520531129485301567,-0.3230388107,0.1558782155,0.0764357190,-0.6384561566,0.6272048470,12.8034029725
1520531129490315567,-0.3451557069,0.1526584942,0.0786167039,-0.6661152140,0.7866926775,12.7593551964
1520531129495330567,-0.3665223213,0.1441824918,0.0850850074,-0.6901665683,0.9437819461,12.6722753175
1520531129500347567,-0.3899030193,0.1339617652,0.0899204308,-0.6877614329,1.0469078352,12.6314763059
1520531129505362567,-0.4117778179,0.1216990240,0.0958196758,-0.7346615737,1.0625003135,12.5761346918
1520531129510377567,-0.4298866115,0.1062296160,0.1027696497,-0.7130153548,1.1164599467,12.4282790984
1520531129515392567,-0.4459866375,0.0913517775,0.1067443311,-0.8008027979,1.1260599072,12.3222069690
1520531129520409567,-0.4598201833,0.0782151195,0.1137041553,-0.8501080741,1.1104749218,12.2959727668
1520531129525425567,-0.4696454343,0.0589748019,0.1154694551,-0.9427057880,1.0924950272,12.2643515655
1520531129530439567,-0.4767083310,0.0394492818,0.1153335767,-0.9595417360,1.0445307215,12.2634000659
1520531129535456567,-0.4862823655,0.0222582240,0.1135968748,-0.9595417360,0.9845737004,12.1960541835
1520531129540470567,-0.4918356187,0.0050687415,0.1118527053,-1.0076444445,0.9306161277,12.1721699830
1520531129545486567,-0.4931151100,-0.0071487765,0.1039158383,-1.0749882364,0.9150325472,12.1112470380
1520531129550502567,-0.4946446181,-0.0161509650,0.0922162495,-1.1375217575,0.9054442941,12.0421364184
1520531129555517567,-0.4931569956,-0.0222301141,0.0775572860,-1.2397400131,0.9474221700,11.9384974654
1520531129560534567,-0.4889001540,-0.0230559743,0.0602277451,-1.2722093414,1.0001868775,11.8434662468
1520531129565551567,-0.4821229774,-0.0186366570,0.0432040984,-1.3082863728,1.0649432701,11.7728634729
1520531129570565567,-0.4760939342,-0.0101389800,0.0264835210,-1.3395531333,1.0697422670,11.7766495589
1520531129575581567,-0.4718218265,0.0001070433,0.0095090032,-1.3058812373,1.0589473807,11.7891159249
1520531129580597567,-0.4657902351,0.0091816619,-0.0050427609,-1.2818298831,1.0913222989,11.7807152439
1520531129585611567,-0.4600160583,0.0135933011,-0.0193590817,-1.2108783880,1.1548712154,11.7276661927
1520531129590627567,-0.4527329948,0.0165384104,-0.0299016758,-1.1687885181,1.2268163627,11.6504848544
1520531129595642567,-0.4492246122,0.0130599284,-0.0361574425,-1.1146729710,1.3251416628,11.5719985961
1520531129600658567,-0.4449730711,0.0005437224,-0.0405897038,-1.0353035019,1.3707028173,11.5769923472
1520531129605674567,-0.4394661023,-0.0166516262,-0.0385667666,-0.9679597100,1.4186631893,11.5309664763
1520531129610690567,-0.4364741526,-0.0379389975,-0.0322415510,-0.9234647046,1.4030708983,11.4724413929
1520531129615704567,-0.4332330642,-0.0624387846,-0.0232357971,-1.0064418768,1.4318567310,11.4081409162
1520531129620722567,-0.4302478497,-0.0901431714,-0.0145245763,-1.0292906634,1.4570404595,11.3327993991
1520531129625736567,-0.4267617979,-0.1193050124,-0.0055548585,-1.0858113459,1.5361881294,11.1740586387
1520531129630752567,-0.4230191233,-0.1443866432,0.0031749698,-1.1423320284,1.5805607271,11.0165139330
1520531129635767567,-0.4172693982,-0.1706271969,0.0097278049,-1.2000552786,1.6836912992,10.8356807557
1520531129640783567,-0.4110177734,-0.1951090486,0.0125054025,-1.2794247476,1.7460527828,10.7120430806
1520531129645798567,-0.4040100958,-0.2178415693,0.0150243926,-1.3539839459,1.7328680451,10.5605407989
1520531129650814567,-0.3952402880,-0.2373638004,0.0159412941,-1.4177200346,1.7352712899,10.4937544788
1520531129655831567,-0.3862230038,-0.2577513454,0.0136045090,-1.3888584095,1.6789094421,10.5086363878
1520531129660845567,-0.3797098164,-0.2699738240,0.0086291784,-1.3816430032,1.6573243526,10.4249128409
1520531129665861567,-0.3741963711,-0.2789951087,0.0050328982,-1.3539839459,1.6429325133,10.3177404129
1520531129670878567,-0.3666682657,-0.2842246932,0.0003796008,-1.3142992113,1.5817732609,10.2453608572
1520531129675892567,-0.3608967431,-0.2871217054,-0.0050642826,-1.2986658311,1.5601875157,10.1452853595
1520531129680908567,-0.3568898518,-0.2926353116,-0.0129598198,-1.2445502840,1.5254082287,10.0285781474
1520531129685924567,-0.3518743741,-0.2943546977,-0.0229926909,-1.1904347369,1.4954255035,9.9374334249
1520531129690939567,-0.3478574034,-0.2908280993,-0.0335247714,-1.1182806741,1.4318654414,9.8066329736
1520531129695954567,-0.3433409596,-0.2899252215,-0.0435367013,-1.1050524293,1.3934919176,9.7588937347
1520531129700970567,-0.3390768262,-0.2896044829,-0.0538231566,-1.0641651270,1.3491205375,9.7364582932
1520531129705986567,-0.3338072818,-0.2907475574,-0.0614171352,-1.0377086373,1.3335296515,9.6943788010
1520531129711002567,-0.3300394616,-0.2883989788,-0.0673583611,-1.0172649862,1.3107443912,9.6837427369
1520531129716016567,-0.3257633238,-0.2816787070,-0.0735377200,-1.0184675539,1.3059479232,9.6663269600
1520531129721033567,-0.3207244922,-0.2691333631,-0.0785918338,-0.9799853871,1.2687715729,9.6334486170
1520531129726049567,-0.3121630822,-0.2551377308,-0.0806653615,-0.9523263297,1.2220029422,9.6611164598
1520531129731064567,-0.3068674161,-0.2414398620,-0.0808412236,-0.9282749755,1.1200741331,9.6470360251
1520531129736080567,-0.3005597371,-0.2233737452,-0.0799034227,-0.9186544338,1.1032854179,9.6667152026
1520531129741095567,-0.2950077188,-0.2082290534,-0.0762809935,-0.8765645638,1.0673079271,9.6593677421
1520531129746110567,-0.2866934402,-0.1957108383,-0.0707898848,-0.8428926678,1.0493181982,9.5870046154
1520531129751126567,-0.2786314328,-0.1855310822,-0.0626106351,-0.8296644230,1.0517154488,9.4915777169
1520531129756142567,-0.2725888329,-0.1811761622,-0.0558248428,-0.8741594284,1.0325326675,9.4083551487
1520531129761157567,-0.2642908280,-0.1788483928,-0.0533875469,-0.8669440221,0.9869647694,9.3025742534
1520531129766172567,-0.2552321050,-0.1706889953,-0.0522599189,-0.8176387459,0.9965540527,9.2265456344
1520531129771189567,-0.2469226603,-0.1596182333,-0.0502970223,-0.8428926678,0.9030230666,9.2187476413
1520531129776204567,-0.2376112272,-0.1491218337,-0.0513164436,-0.8272592876,0.8442639682,9.1268434009
1520531129781220567,-0.2295532577,-0.1383432831,-0.0490847574,-0.7466872508,0.8154783229,9.0412507176
1520531129786236567,-0.2237642814,-0.1331026530,-0.0466205634,-0.6853562974,0.7771010527,9.0000161401
1520531129791251567,-0.2149634632,-0.1322388937,-0.0414898575,-0.6264304795,0.7926852888,8.8913480032
1520531129796266567,-0.2046572788,-0.1357569664,-0.0320665638,-0.5446558750,0.7782892349,8.8312967498
1520531129801282567,-0.1948561149,-0.1421941803,-0.0207707462,-0.4700966768,0.7459066365,8.7527389635
1520531129806298567,-0.1840523980,-0.1515492163,-0.0078757511,-0.4015503172,0.7159227873,8.7172366902
1520531129811314567,-0.1727481574,-0.1647022523,0.0087770531,-0.3161680096,0.7027255928,8.6129876820
1520531129816329567,-0.1639587555,-0.1801917196,0.0270400152,-0.2680653011,0.6607519316,8.4486981090
1520531129821345567,-0.1524063877,-0.1971392118,0.0460983656,-0.1766701549,0.6367620049,8.3060503491
1520531129826361567,-0.1385892097,-0.2129253789,0.0670552291,-0.1670496132,0.6223715706,8.0886498213
1520531129831376567,-0.1257797362,-0.2310452012,0.0888078125,-0.1670496132,0.6055836047,7.8748317045
1520531129836392567,-0.1099559548,-0.2509157915,0.1118941861,-0.1345802849,0.6079793567,7.6943810164
1520531129841407567,-0.0951317821,-0.2670002335,0.1355524186,-0.0852750087,0.5899884103,7.4591655704
1520531129846422567,-0.0790541888,-0.2830739853,0.1554206749,-0.1201494724,0.5384280882,7.3328816076
1520531129851438567,-0.0632260949,-0.2994465043,0.1779926338,-0.1345802849,0.4880653143,7.1738574588
1520531129856454567,-0.0471338981,-0.3059096657,0.1998280732,-0.1911009674,0.4712817504,7.0640202915
1520531129861469567,-0.0305343913,-0.3071196959,0.2187265899,-0.2115446185,0.4161228832,6.9759501266
1520531129866484567,-0.0166939300,-0.3022015360,0.2338892827,-0.2584447593,0.3597669360,6.9671644311
1520531129871501567,-0.0000824463,-0.2908652776,0.2466608364,-0.1995189414,0.3153941510,6.9038783754
1520531129876517567,0.0147750500,-0.2754488682,0.2589256886,-0.1730624517,0.2794178778,6.8618187619
1520531129881532567,0.0266064458,-0.2676089095,0.2708677953,-0.1874932643,0.2434447890,6.8085356809
1520531129886548567,0.0412012975,-0.2585943170,0.2798376556,-0.2151523217,0.2170658539,6.6159147263
1520531129891564567,0.0552948337,-0.2463644935,0.2850452607,-0.1862906966,0.1990764997,6.5017612375
1520531129896578567,0.0663667621,-0.2364574581,0.2867235851,-0.0840724410,0.1475055004,6.4148179367
1520531129901595567,0.0789470598,-0.2245028560,0.2857092119,-0.1261623109,0.1115345658,6.2548868281
1520531129906610567,0.0915241507,-0.2131230102,0.2817143876,-0.1045160921,0.0347878928,6.1304015717
1520531129911625567,0.1066083845,-0.2037716735,0.2739116919,-0.0612236544,-0.0251725001,6.0080135415
1520531129916640567,0.1201737423,-0.2011162158,0.2636257526,-0.0672364930,-0.0431591382,5.8837402037
1520531129921657567,0.1317274824,-0.1975793794,0.2503742115,-0.0792621701,-0.0635435888,5.8722556935
1520531129926673567,0.1420334396,-0.1876325757,0.2371739118,-0.0720467638,-0.0875269592,5.7803994776
1520531129931688567,0.1513399252,-0.1718511909,0.2213144818,-0.0816673055,-0.1558772141,5.6631832310
1520531129936704567,0.1583890339,-0.1525726210,0.2049448375,-0.0816673055,-0.1690677587,5.6492503663
1520531129941720567,0.1631730698,-0.1341618066,0.1858672656,-0.1117314984,-0.1546757321,5.6088539222
1520531129946734567,0.1689611601,-0.1154541147,0.1648962285,-0.1706573163,-0.1846496534,5.6059702716
1520531129951751567,0.1732395718,-0.0958626620,0.1401470185,-0.1598342069,-0.2230229899,5.6093887768
1520531129956767567,0.1759997622,-0.0844327520,0.1161500001,-0.1225546078,-0.2625975273,5.6125509401
1520531129961782567,0.1775017413,-0.0747538268,0.0929536146,-0.0672364930,-0.2709958186,5.6387500039
1520531129966796567,0.1782466092,-0.0685769103,0.0716257734,-0.0624262221,-0.3141652485,5.6654745908
1520531129971813567,0.1764689426,-0.0691013657,0.0497103767,-0.0263491907,-0.3297568838,5.7430022854
1520531129976828567,0.1704136955,-0.0739997195,0.0283106599,-0.0395774356,-0.3453446791,5.7977670083
1520531129981844567,0.1648633787,-0.0768567279,0.0063844794,-0.0708441961,-0.3465413843,5.9259083441
1520531129986859567,0.1610681550,-0.0808705724,-0.0185298654,-0.0888827118,-0.3525356815,5.9539812215
1520531129991876567,0.1494943660,-0.0779015248,-0.0406709288,-0.1225546078,-0.3609270420,6.0286943616
1520531129996890567,0.1401874140,-0.0711435922,-0.0627872925,-0.0864775764,-0.3621289923,6.0852894330
1520531130001906567,0.1331430767,-0.0632170500,-0.0857106021,-0.0660339253,-0.3453426185,6.1234248267
1520531130006923567,0.1218308777,-0.0541353847,-0.1053705343,-0.0467928419,-0.2961793597,6.1313246106
1520531130011937567,0.1110198179,-0.0485610633,-0.1209998885,0.0325766272,-0.2686053116,6.2165238347
1520531130016953567,0.0976909280,-0.0473621365,-0.1353051924,0.0951101483,-0.2230428458,6.2367893280
1520531130021970567,0.0863794621,-0.0432587748,-0.1458043566,0.0975152837,-0.1570903098,6.2367016043
1520531130026983567,0.0768213288,-0.0417699003,-0.1590322545,0.0433997366,-0.1438955505,6.2314047493
1520531130032000567,0.0682722603,-0.0382445825,-0.1708937283,-0.0095132428,-0.1354974465,6.2505058897
1520531130037017567,0.0574599734,-0.0317880948,-0.1894924182,0.0590331169,-0.1127191170,6.3114101136
1520531130042032567,0.0501668306,-0.0273823037,-0.2035139235,0.1179589348,-0.0719529320,6.3073103764
1520531130047046567,0.0411121262,-0.0270667831,-0.2137756424,0.1588462370,-0.0275879208,6.4242456783
1520531130052062567,0.0305453633,-0.0290792874,-0.2254050752,0.1949232684,-0.0000105008,6.5226498680
1520531130057078567,0.0239962140,-0.0334212927,-0.2370597602,0.2189746227,0.0191738728,6.6037471342
1520531130062093567,0.0144245240,-0.0441807664,-0.2465933852,0.2117592164,0.1103091069,6.6513763969
1520531130067109567,0.0066176377,-0.0534950116,-0.2515198816,0.1696693465,0.1630745636,6.7423818513
1520531130072125567,0.0018277449,-0.0619346502,-0.2561747636,0.1468205599,0.2074445388,6.7983438917
1520531130077141567,-0.0067342218,-0.0706598659,-0.2635303268,0.1035281222,0.2482186850,6.8975077523
1520531130082157567,-0.0127786290,-0.0776430742,-0.2681717597,0.0854896066,0.3093762515,6.9696766170
1520531130087171567,-0.0160565497,-0.0831690052,-0.2725366652,0.0686536586,0.3465509158,6.9988578371
1520531130092188567,-0.0153140420,-0.0892775869,-0.2763723927,0.0518177106,0.3573444909,7.0710641090
1520531130097202567,-0.0170767798,-0.0898515755,-0.2798906685,0.0361843303,0.3561465681,7.1723239681
1520531130102218567,-0.0153232628,-0.0892469928,-0.2877353204,0.0145381115,0.3645422369,7.2864165813
1520531130107234567,-0.0125601047,-0.0845589907,-0.2969034454,-0.0347671647,0.4281005194,7.4413996595
1520531130112250567,-0.0115517299,-0.0778370851,-0.3041589205,-0.0455902742,0.4712704176,7.5878930470
1520531130117265567,-0.0090334882,-0.0673163919,-0.3151759384,-0.0900852795,0.5228369212,7.7161116875
1520531130122281567,-0.0077706351,-0.0538728761,-0.3296854885,-0.1093263629,0.5911894239,7.8800946136
1520531130127296567,-0.0049932145,-0.0357680739,-0.3436211778,-0.0997058212,0.6163706235,8.0531358662
1520531130132312567,-0.0014626423,-0.0170751084,-0.3594476423,-0.1911009674,0.6739364820,8.2248044835
1520531130137329567,0.0003052352,0.0007510271,-0.3782535139,-0.2163548894,0.7398911721,8.3946589933
1520531130142343567,0.0025780431,0.0206185081,-0.3975858491,-0.2151523217,0.8034455209,8.4712868143
1520531130147358567,0.0018316151,0.0384480297,-0.4180103288,-0.1766701549,0.8550055620,8.5464013279
1520531130152375567,0.0073694573,0.0559813438,-0.4357432407,-0.1393905558,0.9257519435,8.5634016394
1520531130157391567,0.0066287413,0.0752554047,-0.4515573248,-0.1141366338,1.0240794914,8.5154120453
1520531130162406567,0.0081446143,0.0919129899,-0.4692894384,-0.1562265037,1.1032260374,8.5110959701
