#timestamp [ns],w_RS_S_x [rad s^-1],w_RS_S_y [rad s^-1],w_RS_S_z [rad s^-1],a_RS_S_x [m s^-2],a_RS_S_y [m s^-2],a_RS_S_z [m s^-2]
1520621014560423941,-0.1589741200,-0.0383424018,0.0492163699,0.2177720550,0.1510794130,9.8611197156
1520621014565439941,-0.1725244626,-0.0252419705,0.0517765248,0.1877078622,0.0935230142,9.8196312879
1520621014570455941,-0.1840667512,-0.0156453787,0.0572822738,0.2153669196,0.0407586814,9.7124962788
1520621014575471941,-0.1920933573,-0.0054537130,0.0587277464,0.1672642110,-0.0012074871,9.6769789453
1520621014580487941,-0.1991145055,0.0044447768,0.0609807668,0.0854896066,-0.0311796288,9.7138305852
1520621014585501941,-0.2058906471,0.0093883711,0.0637366197,0.0674510909,-0.0503644706,9.6942684233
1520621014590516941,-0.2094060080,0.0140608001,0.0594499888,0.0181458146,-0.1175124943,9.7505967234
1520621014595534941,-0.2101536514,0.0207718184,0.0559854233,0.0037150021,-0.1702735490,9.7740315141
1520621014600547941,-0.2144230382,0.0263224762,0.0500835865,-0.0275517585,-0.1942539223,9.7906292477
1520621014605563941,-0.2139199073,0.0286624905,0.0468538870,-0.0155260813,-0.1810643143,9.8230393651
1520621014610580941,-0.2114036141,0.0330429841,0.0436360153,-0.0708441961,-0.1990471122,9.8572975125
1520621014615595941,-0.2111512959,0.0365520802,0.0390629454,-0.0840724410,-0.2146349075,9.8272257267
1520621014620611941,-0.2086404991,0.0380238276,0.0339290216,-0.0828698733,-0.2242281245,9.8632498389
1520621014625626941,-0.2046271078,0.0330740512,0.0330721238,-0.0107158105,-0.2086449186,9.8671809100
1520621014630643941,-0.1973433583,0.0298702198,0.0335752267,-0.0155260813,-0.1930557185,9.8311860662
1520621014635657941,-0.1877990131,0.0281343951,0.0302976020,-0.0323620293,-0.1402922286,9.7255433862
1520621014640673941,-0.1792563034,0.0275571588,0.0294656495,-0.0203363522,-0.0983232504,9.7323582725
1520621014645688941,-0.1676993721,0.0258148375,0.0288897500,-0.0347671647,-0.1115126711,9.6953229894
1520621014650703941,-0.1579001213,0.0264087306,0.0261705350,-0.0239440553,-0.1342971821,9.7301041800
1520621014655720941,-0.1450876172,0.0249626567,0.0239712495,-0.0347671647,-0.1450886030,9.6802478595
1520621014660735941,-0.1342881421,0.0220610577,0.0209529447,-0.0107158105,-0.1307007911,9.6695404307
1520621014665750941,-0.1204777895,0.0153711845,0.0184412309,0.0458048720,-0.1199129293,9.6108725713
1520621014670765941,-0.1081782211,0.0066417573,0.0156462099,0.0494125752,-0.1498917209,9.6073802577
1520621014675782941,-0.0933597721,0.0011134455,0.0147647969,0.1059332577,-0.1546926846,9.5708083349
1520621014680798941,-0.0790492839,-0.0067388552,0.0111610738,0.1588462370,-0.1846753162,9.5249989316
1520621014685813941,-0.0614672534,-0.0134345358,0.0113478181,0.1239717734,-0.1774777575,9.5148720666
1520621014690829941,-0.0471446786,-0.0169364647,0.0153527262,0.1384025859,-0.1798771623,9.5205446644
1520621014695843941,-0.0290535387,-0.0186776830,0.0153057837,0.1528333985,-0.1942679713,9.4530138865
1520621014700859941,-0.0092001432,-0.0195506145,0.0176971563,0.1552385339,-0.1822767544,9.4425194874
1520621014705875941,0.0078881733,-0.0210073981,0.0200892168,0.1480231276,-0.1798779116,9.4228309318
1520621014710890941,0.0262284989,-0.0247903949,0.0208378836,0.1335923151,-0.1474999962,9.4345612599
1520621014715907941,0.0450784593,-0.0242060692,0.0229716927,0.0782742003,-0.1522922496,9.4734551203
1520621014720923941,0.0616623356,-0.0250715394,0.0221225820,0.0818819034,-0.1498942497,9.4559855072
1520621014725937941,0.0792587030,-0.0233265384,0.0258908924,0.0698562263,-0.1379019089,9.4874687511
1520621014730952941,0.0943424388,-0.0195348175,0.0267034268,0.0542228460,-0.1379006913,9.5178366596
1520621014735968941,0.1074175012,-0.0139933918,0.0267213958,0.0698562263,-0.1414993301,9.5246608656
1520621014740984941,0.1192370378,-0.0075775763,0.0264778218,0.0566279814,-0.1690785296,9.5805994259
1520621014745999941,0.1315619007,0.0011709691,0.0257100072,0.0073227052,-0.1570832853,9.6287155419
1520621014751014941,0.1378491269,0.0061335233,0.0233012185,0.0241586532,-0.1690760008,9.6727248348
1520621014756030941,0.1453944703,0.0105057880,0.0238616549,0.0963127160,-0.1738781821,9.6871350802
1520621014761046941,0.1541953355,0.0125401845,0.0271074319,0.0806793357,-0.1546907177,9.6942414002
1520621014766062941,0.1577125429,0.0087397238,0.0322123697,0.0542228460,-0.1786714657,9.7247380410
1520621014771076941,0.1604752854,0.0058189488,0.0351610098,0.0530202783,-0.1738748103,9.7549608115
1520621014776092941,0.1614728241,-0.0003019177,0.0359240958,0.0349817626,-0.1906613714,9.7737470614
1520621014781107941,0.1604591332,-0.0081769781,0.0385713983,0.0301714918,-0.1738730308,9.7865610944
1520621014786123941,0.1604569652,-0.0143164492,0.0460999986,-0.0491979773,-0.1522823216,9.7815018602
1520621014791139941,0.1629648922,-0.0186891463,0.0471441687,-0.0852750087,-0.1618726352,9.7946459501
1520621014796155941,0.1632123177,-0.0221885759,0.0481992085,-0.0985032535,-0.1834561326,9.7541207154
1520621014801169941,0.1606996352,-0.0227759717,0.0495521591,-0.1021109567,-0.1846549920,9.7773998790
1520621014806186941,0.1609502323,-0.0224808465,0.0482011859,-0.1057186598,-0.1798581493,9.7913760443
1520621014811201941,0.1604536642,-0.0172324798,0.0468894055,-0.1321751495,-0.1798560888,9.8288221621
1520621014816217941,0.1566872632,-0.0143171976,0.0458364536,-0.1021109567,-0.1666678857,9.8424624004
1520621014821233941,0.1529183532,-0.0137351770,0.0455773547,-0.1273648786,-0.1246960040,9.8763694544
1520621014826247941,0.1493974018,-0.0143127685,0.0431445296,-0.0744518993,-0.1438863718,9.9107374599
1520621014831263941,0.1398431183,-0.0181052371,0.0434039109,-0.0107158105,-0.1175102465,9.9182263742
1520621014836279941,0.1363170155,-0.0239343060,0.0433659833,0.0325766272,-0.0839376864,9.9619337209
1520621014841295941,0.1300231050,-0.0326797601,0.0438520506,0.0229560855,-0.0707463924,9.9968788172
1520621014846311941,0.1207110171,-0.0417104959,0.0416360365,0.0686536586,-0.0467671430,9.9975727823
1520621014851325941,0.1106453347,-0.0527914167,0.0431935036,0.0433997366,-0.0359729124,9.9362144348
1520621014856341941,0.1063668761,-0.0571624015,0.0426269998,0.0806793357,-0.0167895690,9.8591313677
1520621014861357941,0.1005806245,-0.0615339770,0.0420632964,0.1191615025,-0.0263856896,9.8390097134
1520621014866373941,0.0955532365,-0.0638728498,0.0442192133,0.1889104299,-0.0072048751,9.7732320492
1520621014871387941,0.0897749434,-0.0641730547,0.0466626380,0.1937207007,0.0239724013,9.7533983790
1520621014876403941,0.0870135574,-0.0630129702,0.0482999396,0.1612513725,0.0743388279,9.7106659769
1520621014881418941,0.0842494898,-0.0630147816,0.0485756195,0.2045438101,0.1019156859,9.7415955869
1520621014886435941,0.0792296722,-0.0586467113,0.0488888461,0.2310002998,0.1019136254,9.7285544921
1520621014891449941,0.0789834385,-0.0528096496,0.0454166779,0.2117592164,0.0839280176,9.6102206298
1520621014896465941,0.0794909289,-0.0458009269,0.0397876347,0.1865052944,0.0851291249,9.5941952513
1520621014901480941,0.0767393204,-0.0335507480,0.0350163121,0.1444154245,0.1115134923,9.5666877479
1520621014906497941,0.0739914128,-0.0166296755,0.0270340081,0.1612513725,0.1055164789,9.5630432919
1520621014911513941,0.0719946731,-0.0020408408,0.0195736111,0.1973284039,0.1103102308,9.5615253189
1520621014916528941,0.0692489649,0.0163364260,0.0118729684,0.2021386747,0.1378900859,9.5277494292
1520621014921544941,0.0629846340,0.0347137712,0.0036377681,0.2009361070,0.1354918987,9.5289256169
1520621014926559941,0.0582258025,0.0492942386,-0.0011120360,0.1985309716,0.1282972435,9.5777660891
1520621014931574941,0.0491880695,0.0580416996,-0.0045456380,0.2634696281,0.1210973433,9.6224646463
1520621014936590941,0.0411556612,0.0659110303,-0.0063645009,0.3308134200,0.0935118686,9.6752946799
1520621014941606941,0.0316115865,0.0702802422,-0.0071250568,0.3512570711,0.1019042594,9.7204111227
1520621014946621941,0.0203127324,0.0781468361,-0.0083967604,0.3560673420,0.1234884124,9.6971003753
1520621014951636941,0.0085141348,0.0860037635,-0.0061504339,0.3584724774,0.0923105740,9.7308095427
1520621014956652941,-0.0047906289,0.0947327968,-0.0033535461,0.3440416648,0.0815194341,9.7460683988
1520621014961667941,-0.0170913420,0.1022952291,-0.0000263257,0.4318291079,0.0683220523,9.7940368385
1520621014966683941,-0.0329127988,0.1048889057,0.0084100084,0.4835395195,0.0887034121,9.8365129686
1520621014971700941,-0.0467270797,0.1039816567,0.0187097530,0.4943626290,0.0707154628,9.8143444281
1520621014976715941,-0.0618008891,0.1013277936,0.0281868550,0.4835395195,0.1066905185,9.8318468527
1520621014981729941,-0.0736115970,0.0960534780,0.0373673359,0.4258162693,0.1210846992,9.8265839436
1520621014986746941,-0.0869279847,0.0928204487,0.0457545411,0.4366393787,0.1078933116,9.8404371883
1520621014991761941,-0.0994893312,0.0907547097,0.0536081466,0.4017649151,0.0983029044,9.8884338918
1520621014996777941,-0.1125525696,0.0898572257,0.0603893944,0.3452442326,0.1067012894,9.8645708210
1520621015001791941,-0.1213446532,0.0877936920,0.0679654532,0.3272057169,0.1174949581,9.8008179553
1520621015006807941,-0.1306398166,0.0860242596,0.0744624849,0.2983440917,0.1222937676,9.8336342300
1520621015011823941,-0.1381758452,0.0839626750,0.0814951183,0.3199903106,0.1642619966,9.8298961803
1520621015016839941,-0.1414405855,0.0813199952,0.0885153712,0.3344211231,0.1438754854,9.7705062567
1520621015021855941,-0.1454531967,0.0824621051,0.0966481080,0.2887235500,0.1702601338,9.7581417399
1520621015026869941,-0.1479574856,0.0844811446,0.1039730760,0.2706850343,0.1366856069,9.7304586023
1520621015031885941,-0.1507187893,0.0835920678,0.1091119128,0.2418234092,0.0875230974,9.7238146029
1520621015036901941,-0.1492111336,0.0815442256,0.1123401016,0.2839132792,0.0755284150,9.7234166193
1520621015041917941,-0.1492115844,0.0771552470,0.1190704027,0.2827107115,0.1390829511,9.6896641747
1520621015046932941,-0.1477097035,0.0666383143,0.1292683153,0.2237848935,0.1666677702,9.7250751463
1520621015051946941,-0.1391658687,0.0599106804,0.1400231516,0.2249874613,0.1450831489,9.7413545047
1520621015056963941,-0.1316268804,0.0523034001,0.1526670068,0.1901129976,0.0983193885,9.7998467533
1520621015061979941,-0.1263480761,0.0493734117,0.1593986222,0.1251743411,0.0599519526,9.7726247903
1520621015066995941,-0.1170459735,0.0517052170,0.1604813217,0.0337791949,0.0323788411,9.7514605342
1520621015072009941,-0.1110088230,0.0543220279,0.1634661329,-0.0059055396,-0.0419647744,9.7182171254
1520621015077025941,-0.1057213859,0.0613151389,0.1643213235,-0.1069212275,-0.1390872813,9.6414314217
1520621015082040941,-0.0933948020,0.0732776553,0.1603314121,-0.1634419100,-0.1942433387,9.6234410457
1520621015087055941,-0.0833285824,0.0881618720,0.1531213813,-0.2271779988,-0.2601910980,9.5520728022
1520621015092072941,-0.0732592382,0.1056700064,0.1453902665,-0.2163548894,-0.3573223153,9.5497378853
1520621015097088941,-0.0631991815,0.1147207052,0.1403001412,-0.1814804257,-0.3813078399,9.5656918408
1520621015102102941,-0.0533935051,0.1208545465,0.1362704354,-0.1538213683,-0.3813099941,9.5410176014
1520621015107119941,-0.0425896745,0.1211581773,0.1332765845,-0.1357828526,-0.3885062415,9.6198748305
1520621015112133941,-0.0337981280,0.1194184151,0.1313530894,-0.1093263629,-0.3717203361,9.6265738123
1520621015117150941,-0.0192277631,0.1173917182,0.1286049989,-0.1261623109,-0.3933035525,9.6139751477
1520621015122165941,-0.0109366972,0.1191571145,0.1234625635,-0.1778727226,-0.3861046826,9.6284171765
1520621015127181941,-0.0003875879,0.1203500976,0.1147943848,-0.2476216499,-0.3932940928,9.5954009111
1520621015132196941,0.0121686150,0.1200913162,0.1044880815,-0.2259754311,-0.4052871829,9.6742277024
1520621015137212941,0.0222130645,0.1218763410,0.0923081858,-0.2416088114,-0.4172773696,9.6871751450
1520621015142228941,0.0304983792,0.1239535180,0.0795926884,-0.2897115199,-0.4448538529,9.7027781135
1520621015147243941,0.0372757244,0.1257379913,0.0671483142,-0.3462322024,-0.4628365573,9.7021836473
1520621015152257941,0.0458078921,0.1237322412,0.0557539564,-0.3774989629,-0.5036048965,9.6757984253
1520621015157274941,0.0505657827,0.1185212413,0.0438010537,-0.3546501764,-0.5239920632,9.7034873629
1520621015162290941,0.0565766429,0.1089319531,0.0347884759,-0.3618655827,-0.5048052545,9.7604839376
1520621015167306941,0.0623321115,0.0958437667,0.0265613256,-0.3931323432,-0.4496423599,9.7909502223
1520621015172321941,0.0678394489,0.0850865582,0.0183524266,-0.4039554526,-0.4232604276,9.7701112511
1520621015177336941,0.0723428690,0.0760809051,0.0088060036,-0.4256016715,-0.4160638992,9.7703149261
1520621015182351941,0.0791086803,0.0667811115,0.0006058865,-0.4616787028,-0.3656971916,9.7659683897
1520621015187368941,0.0846119287,0.0539885818,-0.0092418494,-0.4075631558,-0.3788919510,9.8072917073
1520621015192383941,0.0911210781,0.0423648978,-0.0201647435,-0.4268042392,-0.3668990482,9.8237373101
1520621015197399941,0.0963766384,0.0333653676,-0.0318769339,-0.3979426141,-0.3657021556,9.8397252348
1520621015202413941,0.0998699784,0.0202777520,-0.0406409755,-0.3654732858,-0.3728995270,9.8870641164
1520621015207429941,0.1056238631,0.0060240276,-0.0488770182,-0.2873063845,-0.3621133510,9.9223192263
1520621015212445941,0.1096180404,-0.0085210421,-0.0573825628,-0.2079369154,-0.3069590731,9.9749515249
1520621015217460941,0.1025463974,-0.0312372234,-0.0629538131,-0.1213520401,-0.2482079359,10.0763201312
1520621015222477941,0.0977387685,-0.0548383270,-0.0642071989,-0.0347671647,-0.2410198369,10.1382261246
1520621015227491941,0.0911629839,-0.0854348054,-0.0649695798,0.0229560855,-0.2098466815,10.1399581670
1520621015232506941,0.0828307498,-0.1131137571,-0.0673297382,0.0361843303,-0.2254365373,10.0608188239
1520621015237523941,0.0795284088,-0.1375840530,-0.0702158689,0.0397920335,-0.2026531502,9.9352499442
1520621015242538941,0.0784888197,-0.1588373065,-0.0771399347,0.0758690649,-0.1918636962,9.8802675026
1520621015247553941,0.0792121488,-0.1777609799,-0.0832378451,0.1083383931,-0.1714808378,9.8834180192
1520621015252568941,0.0832058361,-0.1949387084,-0.0879757549,0.1552385339,-0.1091291886,9.8317663823
1520621015257585941,0.0904762170,-0.2057083395,-0.0913180948,0.2141643518,-0.1019389354,9.7951593560
1520621015262601941,0.0957394573,-0.2161968434,-0.0911373812,0.2442285447,-0.0587722216,9.7832031938
1520621015267617941,0.1022621439,-0.2228895718,-0.0936355600,0.2646721958,-0.0551763926,9.8015950031
1520621015272632941,0.1087827683,-0.2289900615,-0.0996463893,0.2911286855,-0.0491827510,9.8001695012
1520621015277647941,0.1170678398,-0.2356930272,-0.0980896468,0.2863184146,0.0071772236,9.7478648845
1520621015282662941,0.1251101041,-0.2359849033,-0.0967540755,0.2129617841,0.0443562900,9.7148404688
1520621015287678941,0.1331525840,-0.2377409864,-0.0927241607,0.2213797581,0.0107797025,9.6508733574
1520621015292694941,0.1434646255,-0.2348391299,-0.0867690558,0.1251743411,-0.0599620897,9.6623380485
1520621015297709941,0.1510125211,-0.2284264451,-0.0864636037,0.0794767680,-0.0779456370,9.6953404115
1520621015302724941,0.1560504236,-0.2185123030,-0.0882911746,0.0951101483,-0.1007305226,9.7231019181
1520621015307740941,0.1613365003,-0.2112219801,-0.0895981281,0.0927050128,-0.1103234587,9.7301075466
1520621015312755941,0.1656153118,-0.2062667694,-0.0895682700,0.1564411016,-0.0935404567,9.7399301035
1520621015317771941,0.1693928507,-0.1983891692,-0.0927617983,0.1708719142,-0.0539699467,9.7525346381
1520621015322786941,0.1739227493,-0.1905061745,-0.0978505480,0.2430259770,0.0011848932,9.7517785451
1520621015327803941,0.1761860305,-0.1864127933,-0.1026934514,0.3055594980,0.0215654101,9.7697443067
1520621015332817941,0.1774460922,-0.1823263618,-0.1050995749,0.3536622065,0.0239599445,9.7843816372
1520621015337833941,0.1761991913,-0.1744558296,-0.1063899475,0.4173982953,0.0599291933,9.7488618704
1520621015342849941,0.1769629045,-0.1651217598,-0.1098373056,0.4438547850,0.0695202561,9.7462707165
1520621015347864941,0.1732082962,-0.1528792590,-0.1119013023,0.4847420873,0.0647205100,9.7168238231
1520621015352879941,0.1689434375,-0.1452947370,-0.1156232103,0.4655010038,0.0155572512,9.6845190162
1520621015357896941,0.1629261713,-0.1339280044,-0.1174191299,0.3524596388,-0.0180098766,9.6775170253
1520621015362912941,0.1551473082,-0.1234317439,-0.1208417271,0.2730901698,-0.0827572779,9.7039198703
1520621015367927941,0.1433454253,-0.1126369330,-0.1275011843,0.1841001590,-0.1451056491,9.7036847062
1520621015372942941,0.1317991536,-0.0983439525,-0.1346755231,0.0782742003,-0.2122492707,9.7082666660
1520621015377958941,0.1167357177,-0.0805433527,-0.1464159309,-0.0455902742,-0.2769932066,9.7060489993
1520621015382973941,0.0976460472,-0.0659459159,-0.1595260545,-0.1321751495,-0.3225537992,9.8370963211
1520621015387990941,0.0767963206,-0.0507605717,-0.1747928321,-0.1646444777,-0.3105598661,9.9373450443
1520621015393004941,0.0546750140,-0.0448920119,-0.1931044197,-0.1874932643,-0.3009649632,10.0119352987
1520621015398021941,0.0320484164,-0.0445759805,-0.2055053027,-0.1658470455,-0.2565984534,10.0663021080
1520621015403035941,0.0079060674,-0.0483319106,-0.2209105135,-0.1345802849,-0.2302197993,10.1217549609
1520621015408052941,-0.0102058663,-0.0558880451,-0.2309449078,-0.0888827118,-0.1750628989,10.1723907131
1520621015413067941,-0.0298274435,-0.0657802172,-0.2393710110,-0.0648313576,-0.0707395552,10.2185406377
1520621015418083941,-0.0486953908,-0.0768420026,-0.2461841314,-0.0227414876,-0.0167815143,10.2634019546
1520621015423098941,-0.0673096674,-0.0876188610,-0.2505605824,0.0241586532,0.0767477860,10.2198549227
1520621015428113941,-0.0808922985,-0.0966563695,-0.2508748409,0.0782742003,0.1606834009,10.1913548865
1520621015433128941,-0.0959704988,-0.0992956640,-0.2468086568,0.1095409608,0.2074474423,10.1398706168
1520621015438144941,-0.1080307805,-0.0998926286,-0.2432736036,0.1263769088,0.2230349566,10.0885572106
1520621015443160941,-0.1218461512,-0.0978692784,-0.2391741838,0.1444154245,0.2230335517,10.0128422777
1520621015448175941,-0.1364071934,-0.0906049442,-0.2336806188,0.1287820442,0.1918571182,9.9026211706
1520621015453190941,-0.1489540187,-0.0810109315,-0.2273613652,0.0890973097,0.1630808388,9.8321447204
1520621015458207941,-0.1609959528,-0.0676192535,-0.2245312416,0.1035281222,0.1606814341,9.7901694161
1520621015463222941,-0.1700208504,-0.0536458101,-0.2208906348,0.1359974505,0.1498866415,9.7224595543
1520621015468238941,-0.1785491369,-0.0452135750,-0.2153993789,0.1961258361,0.1510810989,9.6428473432
1520621015473254941,-0.1868171507,-0.0306643515,-0.2090502671,0.2237848935,0.1462823830,9.6239885010
1520621015478268941,-0.1915715089,-0.0181476140,-0.2048876183,0.2754953052,0.1486766365,9.5735106549
1520621015483284941,-0.1948193954,-0.0070893936,-0.1999272475,0.2658747635,0.1186988752,9.5073913234
1520621015488300941,-0.1978175199,0.0039740242,-0.1968611647,0.3019517949,0.1007089590,9.5779484930
1520621015493316941,-0.1960413664,0.0132844496,-0.1913823751,0.3933469411,0.1042992621,9.5724068249
1520621015498331941,-0.1912546883,0.0182223749,-0.1848603489,0.4799318164,0.1546564164,9.5575692211
1520621015503346941,-0.1857117419,0.0234454242,-0.1759025867,0.5148062801,0.1582511215,9.5920905851
1520621015508362941,-0.1774031558,0.0254453875,-0.1599402192,0.5027806029,0.1414640922,9.5724675592
1520621015513378941,-0.1653250363,0.0300809432,-0.1482935790,0.5015780352,0.1462607476,9.5132052452
1520621015518394941,-0.1560104120,0.0352981851,-0.1366373587,0.4486650559,0.2050227493,9.4985550987
1520621015523409941,-0.1431754008,0.0434364780,-0.1271298088,0.5027806029,0.2278022027,9.4805739944
1520621015528424941,-0.1275800230,0.0469056887,-0.1146869574,0.5725295303,0.2949486341,9.4496138753
1520621015533439941,-0.1112226647,0.0521045628,-0.0951979744,0.6747477859,0.4028633111,9.3706500601
1520621015538456941,-0.0911005364,0.0520519794,-0.0727800029,0.7481044164,0.5107802360,9.3686686671
1520621015543470941,-0.0689653869,0.0505279641,-0.0446954168,0.7757634738,0.5983153327,9.3601790814
1520621015548486941,-0.0463185757,0.0559988311,-0.0170995019,0.7589275258,0.6522779630,9.3602903319
1520621015553501941,-0.0224076217,0.0646644938,0.0145767218,0.7673454998,0.6342902010,9.3486044971
1520621015558517941,0.0020010491,0.0707122632,0.0446087288,0.7913968541,0.6438814512,9.3448746094
1520621015563533941,0.0254047911,0.0779295475,0.0730282198,0.7974096926,0.6151016128,9.3297362768
1520621015568549941,0.0485575833,0.0842674807,0.1033353295,0.8082328020,0.5611394508,9.3598992944
1520621015573564941,0.0719559151,0.0879903359,0.1309165057,0.7721557707,0.4927912564,9.4346943115
1520621015578580941,0.0935861030,0.0891082520,0.1517172938,0.7000017079,0.4256450123,9.5179743186
1520621015583594941,0.1131981183,0.0864461228,0.1692463649,0.5905680460,0.3716922163,9.5179299551
1520621015588610941,0.1325563374,0.0858410692,0.1802983627,0.5256293895,0.2649737763,9.5709625772
1520621015593627941,0.1496508089,0.0872908466,0.1854181130,0.4462599204,0.2110186388,9.5578420038
1520621015598642941,0.1637291220,0.0881559450,0.1908095637,0.4486650559,0.2182132940,9.6159187753
1520621015603657941,0.1777974970,0.0834927502,0.1931827709,0.4775266810,0.2266050291,9.6353861158
1520621015608673941,0.1933700933,0.0732807284,0.2003807652,0.4859446550,0.2661760075,9.6736163427
1520621015613688941,0.2076871208,0.0642359377,0.2067783479,0.4895523581,0.3261327477,9.7316299583
1520621015618704941,0.2227611653,0.0563518814,0.2150772439,0.4679061393,0.4016802802,9.6876055107
1520621015623719941,0.2395925454,0.0484743418,0.2212085058,0.5484781760,0.4280550943,9.6159047652
1520621015628735941,0.2579409510,0.0449572343,0.2314285020,0.5929731814,0.5071948968,9.5503144403
1520621015633750941,0.2765494488,0.0458015236,0.2451984744,0.5797449366,0.5395727185,9.4609265393
1520621015638766941,0.2941551350,0.0513206833,0.2541360570,0.5496807438,0.5563630260,9.4182034687
1520621015643781941,0.3112649118,0.0620860244,0.2625734967,0.5196165509,0.5431748228,9.3708610557
1520621015648798941,0.3316410911,0.0731469437,0.2699249086,0.4390445142,0.5024103236,9.3344964455
1520621015653813941,0.3487469593,0.0836325552,0.2740313909,0.4318291079,0.5000126047,9.3578118936
1520621015658828941,0.3600700532,0.0929547347,0.2765164401,0.3584724774,0.4496544202,9.4573572504
1520621015663845941,0.3701293964,0.0979100246,0.2773472014,0.3055594980,0.4124851881,9.6310679715
1520621015668860941,0.3721307348,0.0953065623,0.2705598124,0.2839132792,0.3357418869,9.8079993813
1520621015673876941,0.3718625939,0.0859959991,0.2653487684,0.2538490864,0.2769863477,9.9234015568
1520621015678891941,0.3678097946,0.0664898713,0.2584436418,0.1901129976,0.1942506224,10.0670463156
1520621015683905941,0.3604754248,0.0394210345,0.2460758646,0.0782742003,0.1115186436,10.2402128755
1520621015688923941,0.3508741787,0.0103196325,0.2307207213,0.0193483823,0.0671550373,10.3477469326
1520621015693938941,0.3387606932,-0.0179071435,0.2148358228,-0.0395774356,0.0096008863,10.3925380789
1520621015698952941,0.3251405163,-0.0446746738,0.1978826565,-0.0672364930,-0.0083840659,10.4555806088
1520621015703969941,0.3100144871,-0.0682295524,0.1779807396,-0.0960981181,0.0467786414,10.4569698845
1520621015708984941,0.2969047879,-0.0874128754,0.1581084351,-0.0335645970,0.0851462646,10.3238393919
1520621015714000941,0.2825416721,-0.1051434103,0.1396023092,-0.0600210867,0.1079319932,10.2903725111
1520621015719015941,0.2706948887,-0.1202497713,0.1208409780,0.0049175698,0.1546934121,10.2373983558
1520621015724031941,0.2568481862,-0.1274888094,0.1018728579,0.0902998774,0.2086480813,10.2051367898
1520621015729046941,0.2442545826,-0.1399846600,0.0874616689,0.1576436693,0.2614050149,10.1916462722
1520621015734061941,0.2273962850,-0.1489943112,0.0763316420,0.2322028675,0.3213562292,10.1269441743
1520621015739077941,0.2130533515,-0.1562546707,0.0652102864,0.2310002998,0.3585296760,10.1315682056
1520621015744093941,0.1974629721,-0.1623747510,0.0632987172,0.2514439509,0.4160868241,10.1522316826
1520621015749107941,0.1846406630,-0.1658720160,0.0616725676,0.2742927375,0.4400678530,10.1357158843
1520621015754124941,0.1715666592,-0.1696607639,0.0600446618,0.2646721958,0.4220814959,10.1486106484
1520621015759139941,0.1534721791,-0.1690792562,0.0579183448,0.2911286855,0.4220794354,10.2180817744
1520621015764155941,0.1361272869,-0.1705320458,0.0538812449,0.2766978729,0.4268771210,10.2112446940
1520621015769170941,0.1220459746,-0.1763630646,0.0530512820,0.2791030083,0.3897035806,10.2298518367
1520621015774186941,0.1046924536,-0.1862754751,0.0524668092,0.2779004406,0.3801105509,10.2263864646
1520621015779201941,0.0870855246,-0.1967663825,0.0502550816,0.2947363886,0.3297453418,10.2169745544
1520621015784216941,0.0727472877,-0.2046277218,0.0458929272,0.3031543626,0.3069610182,10.1762397980
1520621015789232941,0.0551431305,-0.2130789375,0.0436967612,0.2935338209,0.2518013080,10.1775493721
1520621015794247941,0.0395512613,-0.2180232817,0.0380064418,0.3019517949,0.2793808821,10.1158469123
1520621015799263941,0.0277388207,-0.2145108987,0.0304797697,0.3055594980,0.2841771628,10.0611863539
1520621015804280941,0.0144268945,-0.2078069884,0.0278501780,0.3067620657,0.2649908224,10.0240047517
1520621015809295941,0.0008652180,-0.1967178400,0.0198434814,0.3223954460,0.3021629579,9.9401419718
1520621015814310941,-0.0111866034,-0.1862203396,0.0153466350,0.3428390971,0.3309407359,9.8388083977
1520621015819326941,-0.0232355237,-0.1745616716,0.0124819563,0.3344211231,0.3357379532,9.8470206634
1520621015824341941,-0.0320155793,-0.1614448011,0.0096223256,0.3668904514,0.3201465989,9.8409091085
1520621015829357941,-0.0465769195,-0.1506670987,0.0089200120,0.3500545034,0.2757797144,9.8597105481
1520621015834372941,-0.0576202485,-0.1387166524,0.0060556895,0.2959389563,0.2721865079,9.8149171695
1520621015839388941,-0.0701664504,-0.1259050266,0.0078001168,0.3043569303,0.2230210949,9.7904781539
1520621015844404941,-0.0829678597,-0.1133732288,0.0052140534,0.2863184146,0.1834508658,9.8081244773
1520621015849418941,-0.0937613404,-0.1020032678,0.0015331802,0.2418234092,0.1115059058,9.7470340952
1520621015854435941,-0.1027924754,-0.0888872242,-0.0010554378,0.1913155653,0.0335657120,9.8033846244
1520621015859450941,-0.1171029910,-0.0748881680,-0.0076857739,0.1612513725,-0.0395795123,9.8618557782
1520621015864466941,-0.1299115590,-0.0629180148,-0.0181221145,0.1059332577,-0.1355064378,9.9066492282
1520621015869482941,-0.1412224056,-0.0570605185,-0.0307723073,0.1275794765,-0.1786771789,9.9587771113
1520621015874498941,-0.1517819940,-0.0526574642,-0.0442466535,0.1239717734,-0.1786768980,9.9925144012
1520621015879512941,-0.1633530270,-0.0535026389,-0.0566769647,0.1624539402,-0.1750824738,10.0374599456
1520621015884527941,-0.1751790518,-0.0560918486,-0.0707434230,0.2009361070,-0.1331155561,10.0533144722
1520621015889543941,-0.1822339664,-0.0627651270,-0.0824149593,0.2766978729,-0.0587747504,10.0606395623
1520621015894559941,-0.1897894166,-0.0700308409,-0.0905729116,0.3368262586,0.0875156982,10.0111016040
1520621015899573941,-0.1953358915,-0.0810961494,-0.0941642175,0.3957520765,0.2302088193,9.9081202369
1520621015904590941,-0.1948403349,-0.0869265567,-0.0931274291,0.4438547850,0.3345302897,9.7669308837
1520621015909606941,-0.1883049423,-0.0875147787,-0.0901680052,0.4919574935,0.4196655134,9.6675974223
1520621015914621941,-0.1815112529,-0.0819794565,-0.0887856387,0.5148062801,0.5299846528,9.6800510305
1520621015919637941,-0.1729559235,-0.0758665036,-0.0852377258,0.5893654783,0.6115203947,9.6432193393
1520621015924653941,-0.1611232026,-0.0651039584,-0.0765199390,0.6398733222,0.6786683247,9.6089600693
1520621015929668941,-0.1487879311,-0.0555118535,-0.0659181567,0.7000017079,0.7170361352,9.5967159581
1520621015934683941,-0.1336883254,-0.0447480285,-0.0572064372,0.7950045572,0.7398124041,9.5213918281
1520621015939698941,-0.1178362777,-0.0360279703,-0.0468884042,0.8022199635,0.7601972293,9.4736538169
1520621015944715941,-0.0999761760,-0.0308117516,-0.0336247771,0.8467149689,0.7697868873,9.4429956322
1520621015949729941,-0.0848763625,-0.0244390906,-0.0173711189,0.8755765940,0.7661872182,9.4462046508
1520621015954746941,-0.0677749598,-0.0253538972,0.0001759579,0.8924125419,0.7649867665,9.4611498207
1520621015959761941,-0.0481651831,-0.0277159007,0.0144607013,0.8900074065,0.7314110220,9.5135024503
1520621015964777941,-0.0338313175,-0.0289137053,0.0284935923,0.8671586200,0.7038325718,9.5288596126
1520621015969793941,-0.0177430176,-0.0312661607,0.0387266814,0.8443098334,0.6474747514,9.5407584071
1520621015974807941,-0.0021550297,-0.0327483016,0.0503201026,0.8262713177,0.6282899096,9.5142233814
1520621015979824941,0.0129293138,-0.0315928817,0.0562530013,0.7396864424,0.5959198617,9.4999898463
1520621015984838941,0.0292771455,-0.0257770023,0.0630307734,0.6807606245,0.5551536766,9.5075760153
1520621015989855941,0.0443711254,-0.0170433993,0.0682098346,0.6494938639,0.5299741629,9.4672298645
1520621015994870941,0.0554424383,-0.0074270201,0.0696153900,0.5965808846,0.4628264202,9.4608375062
1520621015999885941,0.0660119926,0.0039425685,0.0691413962,0.5364524989,0.3944800991,9.4626515554
1520621016004901941,0.0775921092,0.0190998213,0.0689649815,0.5292370926,0.3549090270,9.4592739420
1520621016009916941,0.0861505280,0.0310564903,0.0666053463,0.5256293895,0.2661729167,9.4466120048
1520621016014932941,0.0919399551,0.0406860991,0.0623392392,0.4462599204,0.2134169196,9.4892731718
1520621016019948941,0.0957137971,0.0453562842,0.0599328946,0.4222085662,0.1906351248,9.5371773925
1520621016024963941,0.0999802984,0.0444983730,0.0545073731,0.4173982953,0.1354750399,9.6174659352
1520621016029979941,0.0992248651,0.0445031767,0.0526149520,0.4113854568,0.1018995764,9.7581766204
1520621016034994941,0.0989714140,0.0442175211,0.0504488285,0.3813212639,0.1342787093,9.7677348263
1520621016040011941,0.0974545218,0.0404420433,0.0455529026,0.3789161285,0.1282831945,9.7921691061
1520621016045025941,0.0929262659,0.0392856594,0.0414942229,0.3572699097,0.1390771442,9.8074771445
1520621016050040941,0.0914113103,0.0372599456,0.0360705437,0.3512570711,0.1426750338,9.8028835860
1520621016055057941,0.0898996087,0.0369796253,0.0317423866,0.3680930191,0.1366780204,9.7957526981
1520621016060072941,0.0861339605,0.0422339964,0.0277312145,0.3608776128,0.1318820207,9.7295854004
1520621016065088941,0.0851296983,0.0463282830,0.0220827408,0.3416365294,0.1594637490,9.6623414372
1520621016070103941,0.0856374121,0.0547997557,0.0143004459,0.3452442326,0.1738531531,9.6866973130
1520621016075119941,0.0861449926,0.0626862741,0.0073253424,0.3115723366,0.1942411628,9.7148966307
1520621016080135941,0.0846415710,0.0717448272,-0.0023425938,0.3512570711,0.2350088464,9.7504970689
1520621016085149941,0.0846509134,0.0842998570,-0.0117161075,0.3813212639,0.2422013474,9.7571702902
1520621016090165941,0.0844097018,0.0962669202,-0.0191997794,0.3452442326,0.2422041572,9.7656564495
1520621016095182941,0.0824059249,0.1064886292,-0.0280462522,0.3717007222,0.2709814669,9.7607222983
1520621016100196941,0.0811541471,0.1132045497,-0.0334037055,0.4137905922,0.2697790483,9.7777459500
1520621016105213941,0.0766306858,0.1152519388,-0.0368968396,0.3873341025,0.2769759514,9.8593465220
1520621016110228941,0.0723590448,0.1152488082,-0.0363478135,0.3921443734,0.2949626831,9.8825250408
1520621016115243941,0.0675746484,0.1097179158,-0.0390866433,0.4089803213,0.2805716868,9.9288609602
1520621016120259941,0.0615340165,0.1024294829,-0.0385899273,0.4210059985,0.2625836438,9.9241128740
1520621016125273941,0.0544871348,0.0948514568,-0.0389052052,0.4161957276,0.2913633886,9.9601580926
1520621016130290941,0.0489559142,0.0904675964,-0.0348700951,0.3765109931,0.2853707773,9.9396316150
1520621016135305941,0.0404089784,0.0869610787,-0.0324459905,0.3584724774,0.2985627269,9.9188757369
1520621016140322941,0.0381462774,0.0863781520,-0.0327167820,0.3741058577,0.2781761221,9.8606362523
1520621016145337941,0.0368913240,0.0878360392,-0.0332444248,0.3560673420,0.2985629142,9.8270897747
1520621016150351941,0.0333749477,0.0904629490,-0.0353822500,0.3801186962,0.3105524452,9.8361411318
1520621016155368941,0.0303625765,0.0939634809,-0.0372437936,0.3392313940,0.3201487530,9.8539619083
1520621016160382941,0.0266010173,0.1012531732,-0.0396161287,0.3476493680,0.3105549740,9.8492407518
1520621016165399941,0.0233401229,0.1082567768,-0.0438854416,0.3704981545,0.3321377221,9.9291852405
1520621016170414941,0.0208352773,0.1155462329,-0.0459895644,0.3211928783,0.3801071791,9.9435641017
1520621016175430941,0.0165687446,0.1210874210,-0.0483743045,0.3536622065,0.3261433312,9.9595707008
1520621016180445941,0.0090321516,0.1213692960,-0.0459231667,0.3344211231,0.3309413915,10.0259955097
1520621016185460941,0.0012386300,0.1181573719,-0.0445804227,0.3223954460,0.3777088046,10.0609312747
1520621016190477941,-0.0068067667,0.1128983734,-0.0405473147,0.3704981545,0.3777050582,10.1290295657
1520621016195492941,-0.0151101544,0.1009294195,-0.0335888660,0.4294239725,0.4112764007,10.1528282995
1520621016200506941,-0.0244204506,0.0886730579,-0.0282540489,0.4029674828,0.4448543931,10.2192952746
1520621016205523941,-0.0337311468,0.0746618332,-0.0204976572,0.3933469411,0.4376602998,10.2112609234
1520621016210538941,-0.0425383279,0.0588915718,-0.0086973491,0.4570830299,0.4904175145,10.1966433770
1520621016215554941,-0.0533581852,0.0422500114,0.0017472941,0.5075908738,0.5203920914,10.2042575389
1520621016220570941,-0.0646794132,0.0247260877,0.0151622063,0.5148062801,0.5263872315,10.1704792872
1520621016225586941,-0.0747394385,0.0109921120,0.0280625932,0.5051857384,0.5072017340,10.1938345161
1520621016230600941,-0.0805296263,-0.0039035428,0.0401345158,0.5111985769,0.5239892316,10.1321659905
1520621016235615941,-0.0893275709,-0.0138504842,0.0536025610,0.5148062801,0.5287855124,10.0937754475
1520621016240631941,-0.0943555469,-0.0226267685,0.0657197682,0.4991728998,0.5203927470,10.0741793514
1520621016245648941,-0.0971198106,-0.0302380855,0.0783827591,0.4943626290,0.5084017174,10.0788864408
1520621016250662941,-0.0983778612,-0.0375508713,0.0886102596,0.4787292487,0.4964115307,10.0592938527
1520621016255678941,-0.1008963577,-0.0448510377,0.0939702676,0.4474624882,0.4988122467,10.0247315269
1520621016260693941,-0.0991413706,-0.0527395837,0.1020233541,0.4498676236,0.4748292509,10.0061372003
1520621016265709941,-0.0976424691,-0.0609050440,0.1046637664,0.3969546442,0.4568462656,9.9741297322
1520621016270726941,-0.0928696379,-0.0617751416,0.1038365917,0.3632827482,0.4376626413,9.9221797052
1520621016275740941,-0.0883478860,-0.0626460662,0.1032804296,0.3043569303,0.4208792647,9.9169589040
1520621016280757941,-0.0805612251,-0.0635091549,0.1002832871,0.3043569303,0.4160827031,9.9006935660
1520621016285771941,-0.0735322831,-0.0652379514,0.0940343247,0.3103697689,0.3837054433,9.8797480217
1520621016290787941,-0.0675080582,-0.0687249185,0.0912909874,0.3512570711,0.3872996802,9.8584279506
1520621016295803941,-0.0589687750,-0.0698761826,0.0872080380,0.3163826074,0.3633195878,9.8436829126
1520621016300817941,-0.0486733912,-0.0730657208,0.0828357141,0.3476493680,0.3393343442,9.8294562404
1520621016305834941,-0.0401355233,-0.0780173672,0.0833231448,0.3993597796,0.3681096870,9.8242762831
1520621016310849941,-0.0298425624,-0.0841258497,0.0808224113,0.3969546442,0.3585167509,9.7940933051
1520621016315866941,-0.0165235088,-0.0855848385,0.0834920185,0.4173982953,0.3908919501,9.7508634206
1520621016320881941,-0.0032139074,-0.0914029403,0.0817995451,0.4703112747,0.4016800929,9.7329057148
1520621016325897941,0.0101022411,-0.0954865752,0.0852607822,0.4558804621,0.4052786381,9.7190969400
1520621016330924941,0.0234172018,-0.1004443636,0.0887153501,0.4161957276,0.4184722735,9.7508482309
1520621016335927941,0.0357267044,-0.1051089760,0.0913623702,0.3813212639,0.3956913216,9.7395884554
1520621016340943941,0.0490391207,-0.1091802275,0.0902243271,0.3656878837,0.3992899605,9.7618178483
1520621016345958941,0.0623550144,-0.1100433355,0.0880285544,0.3332185554,0.3705131191,9.7714591006
1520621016350972941,0.0739123887,-0.1103236352,0.0855699489,0.2995466595,0.3753123033,9.7671335890
1520621016355989941,0.0889901931,-0.1079757252,0.0815015418,0.2718876021,0.3369419639,9.7011980188
1520621016361005941,0.1005523699,-0.1021252949,0.0747608868,0.2334054352,0.3477372249,9.7294535114
1520621016366020941,0.1121096619,-0.1003564333,0.0688007464,0.1961258361,0.3417444262,9.7507408060
1520621016371037941,0.1239238432,-0.0933374527,0.0609863334,0.1877078622,0.3429442222,9.7101465337
1520621016376052941,0.1339785368,-0.0866105459,0.0531729645,0.1648590756,0.3369502997,9.6743483139
1520621016381066941,0.1465473203,-0.0784228181,0.0442838601,0.1624539402,0.3621324359,9.5988078108
1520621016386082941,0.1573654565,-0.0649952286,0.0370613138,0.1588462370,0.3513404530,9.5407462524
1520621016391098941,0.1709414583,-0.0556430258,0.0287203267,0.1396051536,0.3225625814,9.5188808623
1520621016396113941,0.1825096177,-0.0457146690,0.0225518867,0.1359974505,0.3141688795,9.5177620189
1520621016401129941,0.1968479605,-0.0311216199,0.0158727904,0.1432128568,0.3213631600,9.5200090604
1520621016406145941,0.2119388786,-0.0179873834,0.0099928161,0.1744796173,0.3225598653,9.4511370663
1520621016411159941,0.2235102488,-0.0060207917,0.0043810295,0.1720744819,0.3825170738,9.4650477369
1520621016416175941,0.2380957936,0.0036100777,0.0009102247,0.1744796173,0.4292833630,9.4498708511
1520621016421191941,0.2544396696,0.0079755903,0.0052419683,0.1949232684,0.4820439494,9.4670525736
1520621016426207941,0.2685175005,0.0091349870,0.0095534585,0.2261900290,0.5240114291,9.4492751559
1520621016431222941,0.2873701386,0.0094177302,0.0154726870,0.2586593572,0.5360003045,9.4419745623
1520621016436238941,0.3039647802,0.0114435239,0.0230327300,0.2514439509,0.5719750791,9.3711189312
1520621016441254941,0.3185388342,0.0096972850,0.0243450510,0.2394182738,0.5959588242,9.3340239885
1520621016446269941,0.3346217789,0.0079479947,0.0270073012,0.2346080030,0.6463230966,9.4200203491
1520621016451284941,0.3461797609,0.0050313941,0.0296690600,0.2382157061,0.6786996071,9.5117630341
1520621016456300941,0.3537162559,0.0009447663,0.0334115776,0.3091672012,0.6954820471,9.5656768309
1520621016461315941,0.3610067720,-0.0005253266,0.0393389370,0.3151800397,0.7458454766,9.6074063757
1520621016466332941,0.3660312040,-0.0034452155,0.0422833765,0.3344211231,0.7902121737,9.6002029655
1520621016471347941,0.3690516159,-0.0049235380,0.0506535832,0.4234111339,0.7746164173,9.6156220081
1520621016476363941,0.3685535384,-0.0058168277,0.0576820406,0.3969546442,0.7206571588,9.6275535792
1520621016481377941,0.3680511916,-0.0105010300,0.0657637816,0.4186008630,0.7038675070,9.6540885698
1520621016486394941,0.3620172793,-0.0172263616,0.0735696830,0.4222085662,0.6594990303,9.6227188335
1520621016491409941,0.3594927611,-0.0268481345,0.0753948097,0.3368262586,0.6690988036,9.6491077047
1520621016496424941,0.3542077389,-0.0338492582,0.0775156240,0.2983440917,0.6379241497,9.7064577231
1520621016501440941,0.3461550032,-0.0414254928,0.0763905753,0.2827107115,0.5851631886,9.7554713859
1520621016506456941,0.3380977434,-0.0495721130,0.0706618003,0.2610644926,0.5395975384,9.7824558227
1520621016511471941,0.3287903718,-0.0518864361,0.0630859993,0.1997335393,0.5204160683,9.8318815361
1520621016516487941,0.3147065662,-0.0541968023,0.0533546988,0.1660616433,0.4904401802,9.8543192463
1520621016521503941,0.2998625326,-0.0597061378,0.0411654316,0.1372000182,0.5156243769,9.8301705885
1520621016526518941,0.2870351310,-0.0628938074,0.0327778577,0.1901129976,0.5791746983,9.8795657811
1520621016531533941,0.2724508368,-0.0646259721,0.0246752123,0.2201771904,0.5923629015,9.8885574435
1520621016536550941,0.2535977166,-0.0646144170,0.0176760232,0.2418234092,0.6463225347,9.9045641476
1520621016541564941,0.2375107770,-0.0625591736,0.0096050783,0.2466336801,0.6619109855,9.9172857095
1520621016546580941,0.2194161714,-0.0596356632,0.0034383576,0.2177720550,0.6810994801,9.9280072170
1520621016551595941,0.1995676177,-0.0543883216,-0.0002723983,0.2213797581,0.7254673948,9.9186316846
1520621016556611941,0.1789653438,-0.0488491625,-0.0042500768,0.2754953052,0.7638356737,9.9726883041
1520621016561628941,0.1583621526,-0.0415507698,-0.0122726052,0.3055594980,0.8237903534,9.9944179459
1520621016566642941,0.1400278135,-0.0322263678,-0.0148728547,0.3572699097,0.8765485046,9.9636474347
1520621016571658941,0.1199296310,-0.0263992694,-0.0174965141,0.4125880245,0.9137175494,9.9642348965
1520621016576674941,0.0980742032,-0.0197008919,-0.0192985994,0.4534753267,0.9329006117,9.9452239119
1520621016581688941,0.0789824509,-0.0118286090,-0.0238023854,0.4582855976,0.9436925009,9.8754379304
1520621016586705941,0.0624071134,-0.0033813136,-0.0250598417,0.4715138424,0.9736699812,9.8799285171
1520621016591720941,0.0440743150,0.0074014679,-0.0281900675,0.4811343841,0.9664743894,9.8717068850
1520621016596736941,0.0282521722,0.0161440853,-0.0307994303,0.4715138424,0.9712717004,9.8927144393
1520621016601750941,0.0124349573,0.0286754300,-0.0336504389,0.4907549258,0.9532830954,9.8611668117
1520621016606767941,-0.0023793047,0.0400438157,-0.0373238445,0.4943626290,0.9376939890,9.8425525947
1520621016611783941,-0.0159317133,0.0522730071,-0.0358525423,0.4943626290,0.9005206358,9.8588588596
1520621016616797941,-0.0282320187,0.0645172594,-0.0397944918,0.4871472227,0.8597504234,9.8891845902
1520621016621813941,-0.0387749494,0.0750117084,-0.0429414091,0.4522727590,0.8093892418,9.8814381414
1520621016626829941,-0.0528346523,0.0878416827,-0.0482283747,0.4113854568,0.7590285284,9.8632909223
1520621016631844941,-0.0663994534,0.0963069135,-0.0557139873,0.3825238317,0.7662256188,9.8961048584
1520621016636861941,-0.0739335216,0.1047759641,-0.0637518930,0.3897392379,0.7194585803,9.9146745355
1520621016641880941,-0.0885053214,0.1120759913,-0.0715150769,0.4041700505,0.7074660522,9.9098971924
1520621016646891941,-0.1003123479,0.1205462819,-0.0806272319,0.4378419465,0.7218531148,9.8746911002
1520621016651906941,-0.1118708473,0.1269769792,-0.0897554152,0.4149931599,0.7098634901,9.8818980533
1520621016656923941,-0.1216738185,0.1307859049,-0.0989068733,0.4125880245,0.6918765710,9.8842632915
1520621016661939941,-0.1324778099,0.1360440752,-0.1053398902,0.4630958684,0.6738855310,9.8756542115
1520621016666953941,-0.1405187921,0.1395513791,-0.1104386500,0.4787292487,0.6714860325,9.8917743998
1520621016671968941,-0.1480606071,0.1410213735,-0.1163655426,0.4703112747,0.6954694966,9.8221043112
1520621016676985941,-0.1543461475,0.1424925887,-0.1225653147,0.4943626290,0.6870736405,9.8160676756
1520621016681999941,-0.1571109991,0.1448349652,-0.1271416763,0.5184139832,0.6642880992,9.8205043678
1520621016687016941,-0.1606351574,0.1436826174,-0.1325549525,0.5111985769,0.7062585760,9.7810207768
1520621016692032941,-0.1598906229,0.1402015955,-0.1382644935,0.5412627698,0.7194467792,9.8086067425
1520621016697047941,-0.1576410710,0.1332179941,-0.1415685988,0.5304396603,0.7266424646,9.8028943522
1520621016702062941,-0.1558929328,0.1256448709,-0.1424413037,0.5436679052,0.7806027534,9.7829565291
1520621016707077941,-0.1493711244,0.1189550562,-0.1460216662,0.5376550666,0.7925946260,9.8736505895
1520621016712093941,-0.1415909323,0.1128448607,-0.1482471865,0.5316422281,0.8285693070,9.8608904511
1520621016717108941,-0.1343081040,0.1099367843,-0.1493651359,0.5208191186,0.8849297498,9.8516436860
1520621016722125941,-0.1260257533,0.1038282426,-0.1521326816,0.5328447958,0.9005176387,9.8619707296
1520621016727140941,-0.1152313434,0.0950894835,-0.1516783514,0.4979703321,0.8969229336,9.8727729798
1520621016732154941,-0.1071945716,0.0933523397,-0.1546826299,0.5148062801,0.9245018521,9.8574743429
1520621016737172941,-0.0961431822,0.0907414953,-0.1574286325,0.5232242541,0.9472848645,9.8178572956
1520621016742187941,-0.0850852849,0.0916214378,-0.1579835909,0.5352499312,0.9364916641,9.8072914735
1520621016747202941,-0.0742820776,0.0887074555,-0.1564026154,0.5593012855,0.9328923696,9.8686545099
1520621016752217941,-0.0657366081,0.0857794754,-0.1499476134,0.6182271034,0.9340869207,9.8459990577
1520621016757233941,-0.0561895500,0.0805222697,-0.1440533547,0.6362656191,0.9424794988,9.8957874865
1520621016762248941,-0.0481570162,0.0703109363,-0.1381940881,0.6338604837,0.9017089117,9.9121206695
1520621016767265941,-0.0406229950,0.0606712487,-0.1282712535,0.6771529213,0.9196926463,9.8593852695
1520621016772280941,-0.0333442714,0.0498739372,-0.1213328493,0.5941757491,0.9256948110,9.8683220793
1520621016777295941,-0.0258109089,0.0402364348,-0.1122216524,0.5821500720,0.8621413051,9.8545553774
1520621016782310941,-0.0192818595,0.0320591033,-0.1044502026,0.5881629106,0.8453528709,9.8626482306
1520621016787327941,-0.0162707743,0.0238796651,-0.0964016728,0.6074039940,0.8501479340,9.8380512493
1520621016792342941,-0.0079803044,0.0162806929,-0.0867352226,0.6074039940,0.8357582489,9.8706053121
1520621016797357941,-0.0049724731,0.0063558612,-0.0797822149,0.5809475043,0.8333620286,9.8418115631
1520621016802372941,-0.0024653498,-0.0029900404,-0.0714710981,0.5400602021,0.8201746684,9.8224659506
1520621016807388941,0.0055749660,-0.0094221161,-0.0623363806,0.5316422281,0.8249718857,9.8039489053
1520621016812403941,0.0103507297,-0.0138143232,-0.0537211260,0.5364524989,0.8357637749,9.7713515303
1520621016817419941,0.0133692481,-0.0173352511,-0.0442842973,0.5376550666,0.8261705578,9.7155662702
1520621016822436941,0.0204046391,-0.0211343334,-0.0391858937,0.5352499312,0.8045862175,9.7132864405
1520621016827451941,0.0244306031,-0.0205645577,-0.0337779972,0.5388576343,0.8177764812,9.6992927351
1520621016832465941,0.0267004156,-0.0205906235,-0.0237719995,0.5436679052,0.8009881406,9.7201808768
1520621016837482941,0.0307236942,-0.0226462223,-0.0173019272,0.5340473635,0.8153785750,9.6714504391
1520621016842497941,0.0312334113,-0.0203280609,-0.0124152498,0.5352499312,0.7794042686,9.6889059736
1520621016847512941,0.0339977376,-0.0220832978,-0.0094577174,0.5472756083,0.8261698085,9.6980404704
1520621016852528941,0.0342541368,-0.0194658376,-0.0075443551,0.5388576343,0.8117807791,9.7109200214
1520621016857545941,0.0312436082,-0.0165568160,-0.0061637941,0.5027806029,0.7530257081,9.7578142289
1520621016862560941,0.0314961381,-0.0159754053,-0.0056187229,0.5075908738,0.7758090015,9.7542587593
1520621016867576941,0.0307401324,-0.0165540991,-0.0072450442,0.5232242541,0.7746086435,9.7424863234
1520621016872591941,0.0284797210,-0.0148030359,-0.0085802347,0.5172114155,0.7698125501,9.7146580711
1520621016877607941,0.0244602570,-0.0148089818,-0.0069494918,0.5172114155,0.7578211459,9.7843984018
1520621016882621941,0.0239598939,-0.0165727829,-0.0012804330,0.5821500720,0.7698074925,9.7349445893
1520621016887637941,0.0191912811,-0.0145458884,0.0028021848,0.5677192594,0.7806008802,9.6920751996
1520621016892653941,0.0169335433,-0.0145598862,0.0076762114,0.5160088478,0.7722109247,9.7123431496
1520621016897668941,0.0166874273,-0.0139917842,0.0130920422,0.5063883061,0.7410340229,9.6985214654
1520621016902683941,0.0169368325,-0.0160342912,0.0141581975,0.5292370926,0.7158502945,9.6611350189
1520621016907699941,0.0156791035,-0.0180795742,0.0160387908,0.4498676236,0.7362418632,9.6653741058
1520621016912716941,0.0161769535,-0.0201125131,0.0135873827,0.4558804621,0.7254491311,9.6641639606
1520621016917731941,0.0209486400,-0.0221496057,0.0132924074,0.4438547850,0.7446363145,9.6352087029
1520621016922746941,0.0232147281,-0.0192363312,0.0138515296,0.4558804621,0.7650207651,9.6025317428
1520621016927762941,0.0237197878,-0.0180735099,0.0149416720,0.4414496496,0.7973986805,9.5654520248
1520621016932776941,0.0285015890,-0.0142901963,0.0173966175,0.4065751859,0.8357738902,9.5134575746
1520621016937793941,0.0340291478,-0.0163335494,0.0195351551,0.3825238317,0.8309792017,9.5148584971
1520621016942809941,0.0380513365,-0.0154585489,0.0198049027,0.3548647743,0.8105959686,9.5012018647
1520621016947824941,0.0455922341,-0.0151693098,0.0216869454,0.3320159877,0.7950089227,9.5502495082
1520621016952839941,0.0543916488,-0.0137154971,0.0241166385,0.3668904514,0.7578328534,9.5452977353
1520621016957854941,0.0614366370,-0.0081800764,0.0254985384,0.3789161285,0.7542344955,9.5451841928
1520621016962871941,0.0664705720,-0.0041067367,0.0284963320,0.3404339617,0.7602331948,9.5467150518
1520621016967891941,0.0737646127,-0.0011980489,0.0314810327,0.3560673420,0.7314526070,9.5849417007
1520621016972902941,0.0823123326,-0.0000357192,0.0339089695,0.4077777536,0.6750889798,9.5914662060
1520621016977917941,0.0888486073,0.0008366236,0.0355267793,0.4149931599,0.6738892774,9.5948835768
1520621016982932941,0.0978970352,0.0014200233,0.0365966071,0.4234111339,0.6834817451,9.5599279681
1520621016987949941,0.1051774014,-0.0026506774,0.0343875817,0.4306265402,0.6906760257,9.5238242591
1520621016992964941,0.1081837980,-0.0073021787,0.0308293150,0.3969546442,0.7098648950,9.5566733220
1520621016997980941,0.1154662342,-0.0090381611,0.0272853449,0.3885366702,0.7290517974,9.6125194578
1520621017002994941,0.1197341822,-0.0107789671,0.0250997049,0.3801186962,0.7614292444,9.6462719957
1520621017008010941,0.1197345860,-0.0075606255,0.0202543327,0.3945495088,0.7830126481,9.6798126616
1520621017013025941,0.1235027120,-0.0057984582,0.0156613902,0.4378419465,0.8405680167,9.6746865754
1520621017018041941,0.1245130979,-0.0023029069,0.0162272921,0.4655010038,0.8777392156,9.6615975261
1520621017023057941,0.1242696713,0.0023540481,0.0181571495,0.4883497904,0.8813348574,9.6764794934
1520621017028073941,0.1230186344,0.0070186219,0.0171128689,0.5003754675,0.8777364995,9.7112302695
1520621017033088941,0.1217693930,0.0099210485,0.0211956218,0.5316422281,0.8813314856,9.7039495663
1520621017038104941,0.1167460509,0.0099103382,0.0244515070,0.5244268218,0.8981200135,9.6784362589
1520621017043120941,0.1144932843,0.0133922262,0.0296227565,0.4979703321,0.8297710699,9.6845711423
1520621017048135941,0.1099732455,0.0145501647,0.0318044171,0.4871472227,0.8549538617,9.7415969854
1520621017053149941,0.1062059624,0.0160048821,0.0320930792,0.4967677644,0.8201780401,9.7682665667
1520621017058166941,0.1034405776,0.0160074412,0.0307454837,0.4438547850,0.7770131059,9.7618508217
1520621017063182941,0.0986635280,0.0157207419,0.0283172153,0.4210059985,0.7926037110,9.7887873273
1520621017068196941,0.0933759223,0.0113624751,0.0228827523,0.4558804621,0.7890035736,9.7791542371
1520621017073213941,0.0865903326,0.0134104349,0.0188527270,0.4426522173,0.7734157783,9.8095139369
1520621017078228941,0.0800572726,0.0160398054,0.0153677729,0.4751215456,0.7686166878,9.7836354107
1520621017083243941,0.0740261478,0.0172080796,0.0134940453,0.4847420873,0.8009927300,9.7393487279
1520621017088260941,0.0669875420,0.0175054486,0.0102627859,0.4943626290,0.8213773679,9.7636402317
1520621017093274941,0.0571845158,0.0172167801,0.0078438520,0.5003754675,0.7961949507,9.8100920207
1520621017098290941,0.0483887942,0.0175069040,0.0070507727,0.5051857384,0.8033894186,9.7670388581
1520621017103305941,0.0421072487,0.0186721660,0.0062596954,0.5039831707,0.7985929506,9.7717038164
1520621017108322941,0.0343124569,0.0166352497,0.0040942351,0.4895523581,0.8057889170,9.7741615489
1520621017113337941,0.0272752625,0.0192695223,-0.0012836068,0.4811343841,0.8273741003,9.8195460504
1520621017118353941,0.0169677961,0.0195721672,-0.0069437119,0.4727164101,0.7949979645,9.8440645810
1520621017123368941,0.0099255444,0.0192962367,-0.0136965141,0.4943626290,0.8333687721,9.8635729184
1520621017128384941,0.0023833765,0.0201820052,-0.0190867611,0.5352499312,0.8273698856,9.8782886645
1520621017133398941,-0.0054128619,0.0190279836,-0.0244921029,0.4967677644,0.8081866359,9.8810062237
1520621017138414941,-0.0121974833,0.0219508255,-0.0287860049,0.5184139832,0.8285703372,9.8331277518
1520621017143430941,-0.0189863270,0.0222533919,-0.0339115523,0.5027806029,0.8273724144,9.8460646704
1520621017148446941,-0.0242659625,0.0263569312,-0.0436102802,0.4534753267,0.8165839906,9.8221500787
1520621017153461941,-0.0307949295,0.0324851014,-0.0478801949,0.4570830299,0.8261768330,9.8488349197
1520621017158477941,-0.0343123133,0.0359934491,-0.0527168099,0.4630958684,0.8333712073,9.7918243247
1520621017163493941,-0.0385833270,0.0406714101,-0.0591664077,0.4462599204,0.8213811143,9.7582977142
1520621017168508941,-0.0425981179,0.0476747184,-0.0634343204,0.4498676236,0.7890040419,9.7606184591
1520621017173524941,-0.0473654017,0.0540876779,-0.0649998202,0.3981572119,0.8453676692,9.7599046736
1520621017178539941,-0.0488703720,0.0587608945,-0.0692901848,0.4186008630,0.8441669365,9.7260046823
1520621017183554941,-0.0491196871,0.0616811972,-0.0717024003,0.4450573527,0.7950001186,9.7839023117
1520621017188571941,-0.0491146729,0.0648842417,-0.0708663087,0.5136037124,0.8393629757,9.7704082744
1520621017193586941,-0.0478578259,0.0654689599,-0.0714052879,0.5532884469,0.8729358168,9.7502328188
1520621017198601941,-0.0468487219,0.0657490833,-0.0670761974,0.5208191186,0.9005185753,9.7319276573
1520621017203616941,-0.0445844019,0.0642777498,-0.0614100495,0.5821500720,0.9053103604,9.7011102793
1520621017208633941,-0.0410669279,0.0616471978,-0.0579194947,0.5172114155,0.9400904903,9.7179784568
1520621017213648941,-0.0360364311,0.0607560741,-0.0509013052,0.5256293895,0.9328949921,9.7341735528
1520621017218664941,-0.0302541039,0.0589940059,-0.0449733686,0.4775266810,0.9364961598,9.7055846482
1520621017223679941,-0.0217121940,0.0549070436,-0.0409621720,0.4667035716,0.9281030198,9.7103467549
1520621017228696941,-0.0129159039,0.0537369387,-0.0380113948,0.4270188370,0.9532880594,9.7037356019
1520621017233710941,-0.0061279344,0.0549007645,-0.0363918286,0.3813212639,0.9616856015,9.7378743834
1520621017238726941,-0.0003433137,0.0569361648,-0.0339520885,0.3452442326,0.9365064624,9.7336015154
1520621017243741941,0.0049366472,0.0595636068,-0.0350240656,0.3644853160,0.9353058234,9.7764147301
1520621017248756941,0.0109688776,0.0613186475,-0.0366452038,0.3656878837,0.9029289383,9.7927046126
1520621017253772941,0.0167457594,0.0592819487,-0.0369420459,0.3632827482,0.8945351427,9.7601961773
1520621017258787941,0.0207668464,0.0586971128,-0.0356012302,0.3692955868,0.9221149041,9.7101385672
1520621017263803941,0.0230219849,0.0555000534,-0.0383353436,0.4089803213,0.9053238474,9.7841458842
1520621017268820941,0.0257848175,0.0534570741,-0.0367327638,0.4582855976,0.8573543904,9.8313606526
1520621017273835941,0.0280454916,0.0514124411,-0.0345881587,0.4450573527,0.8873339312,9.8558651977
1520621017278850941,0.0270333454,0.0464592387,-0.0348946301,0.4294239725,0.9161145190,9.8757457465
1520621017283865941,0.0280358513,0.0423707796,-0.0314105236,0.3945495088,0.9257103585,9.8679408308
1520621017288881941,0.0247634230,0.0382901163,-0.0314355794,0.3692955868,0.9281106062,9.9123457686
1520621017293900941,0.0202375821,0.0371257197,-0.0325182543,0.3211928783,0.9077289654,9.9151581375
1520621017298913941,0.0172204985,0.0353733173,-0.0314438085,0.3031543626,0.9029338086,9.9420677016
1520621017303927941,0.0111953131,0.0409123594,-0.0332841898,0.3392313940,0.8897404542,9.9487022764
1520621017308944941,0.0044125343,0.0432436911,-0.0343359872,0.3512570711,0.8645575687,9.9311776226
1520621017313959941,-0.0038733331,0.0479004092,-0.0334733783,0.2911286855,0.8561682687,9.9387439246
1520621017318975941,-0.0139170573,0.0546012288,-0.0344857620,0.3260031491,0.8417758675,9.9302835023
1520621017323990941,-0.0227067964,0.0589692792,-0.0347066263,0.3380288263,0.8237878245,9.9162382644
1520621017329005941,-0.0304923556,0.0612922043,-0.0327805519,0.3308134200,0.8513686162,9.8651472660
1520621017334020941,-0.0380202414,0.0665210604,-0.0278567085,0.3151800397,0.8597638168,9.8734262540
1520621017339037941,-0.0463041800,0.0700005855,-0.0226742576,0.3332185554,0.8765503778,9.8162892536
1520621017344052941,-0.0523266486,0.0734817251,-0.0177665531,0.3536622065,0.8861419090,9.8462966558
1520621017349067941,-0.0585979540,0.0781253907,-0.0117673060,0.3127749043,0.8801493913,9.8339168909
1520621017354082941,-0.0636100758,0.0868584015,-0.0092563659,0.3055594980,0.8633619873,9.7491669833
1520621017359098941,-0.0691310445,0.0903433802,-0.0057023243,0.2983440917,0.8873453578,9.7445652511
1520621017364115941,-0.0733990356,0.0923770276,-0.0040555530,0.2550516541,0.8765564657,9.7833479076
1520621017369130941,-0.0771648250,0.0941194873,-0.0024119383,0.2550516541,0.8801538870,9.7624258084
1520621017374144941,-0.0809354522,0.0929510155,-0.0018727380,0.2971415240,0.8957394344,9.8061624003
1520621017379162941,-0.0839469962,0.0938145180,0.0016566286,0.2971415240,0.8597652217,9.7899274651
1520621017384175941,-0.0854519783,0.0940972991,0.0046376569,0.3019517949,0.8849467959,9.7956668086
1520621017389192941,-0.0854537464,0.0897126910,0.0097446826,0.2754953052,0.9041351032,9.7842841708
1520621017394208941,-0.0846983602,0.0885372502,0.0135220327,0.2550516541,0.9305177848,9.8077003104
1520621017399224941,-0.0877163729,0.0841536459,0.0178230214,0.2610644926,0.9521018441,9.7936750096
1520621017404238941,-0.0879674208,0.0794695421,0.0259042956,0.2935338209,0.9449044727,9.8200953000
1520621017409254941,-0.0887277468,0.0724658200,0.0296399843,0.2863184146,0.9293162092,9.8050728604
1520621017414270941,-0.0894841171,0.0669124647,0.0358217014,0.3091672012,0.9341109913,9.7606843167
1520621017419286941,-0.0892358684,0.0593125273,0.0446914491,0.3248005814,0.9041312632,9.7628856723
1520621017424301941,-0.0889890663,0.0525954845,0.0503213152,0.2959389563,0.8861464047,9.7806162931
1520621017429317941,-0.0874824260,0.0485021233,0.0556983096,0.2201771904,0.9041394116,9.7766875957
1520621017434331941,-0.0897493610,0.0409084855,0.0618672655,0.1913155653,0.8921502552,9.7165487249
1520621017439348941,-0.0887437345,0.0379804655,0.0672540857,0.2382157061,0.8933457429,9.7277124979
1520621017444364941,-0.0902525036,0.0341780357,0.0723683579,0.2045438101,0.8861535228,9.7373444071
1520621017449378941,-0.0910104107,0.0286297794,0.0766562538,0.1853027267,0.8945490043,9.7758742531
1520621017454395941,-0.0932746563,0.0251249947,0.0793392362,0.2237848935,0.8765589009,9.7755172314
1520621017459410941,-0.0927714902,0.0242452105,0.0814960007,0.1997335393,0.8405865614,9.7676514050
1520621017464426941,-0.0915117500,0.0230641392,0.0874367844,0.1792898882,0.7818302728,9.7539619612
1520621017469440941,-0.0925176157,0.0186754952,0.0938984066,0.1612513725,0.7434591842,9.7274456449
1520621017474456941,-0.0935242224,0.0163381977,0.0960468559,0.1564411016,0.7362647163,9.7251751933
1520621017479472941,-0.0927680442,0.0157455259,0.0998286521,0.1672642110,0.6763068522,9.7100204433
1520621017484487941,-0.0922661954,0.0148701124,0.1003621412,0.1564411016,0.6439309037,9.7334002401
1520621017489503941,-0.0915118206,0.0131126310,0.1038644992,0.1239717734,0.6751110835,9.7441451694
1520621017494519941,-0.0925137228,0.0131013107,0.1079245545,0.1600488048,0.6918962396,9.7240211997
1520621017499534941,-0.0910097130,0.0104801691,0.1076312005,0.1768847527,0.7122803156,9.6866488436
1520621017504550941,-0.0902522137,0.0113466053,0.1106124745,0.1804924559,0.7734361962,9.7028241075
1520621017509565941,-0.0864825588,0.0101767166,0.1127609484,0.1841001590,0.8058127067,9.7062438520
1520621017514580941,-0.0849806151,0.0066843352,0.1113787416,0.1997335393,0.8249977359,9.7444237274
1520621017519596941,-0.0812161429,0.0049462460,0.1081118515,0.2081515133,0.8333910632,9.7245771594
1520621017524612941,-0.0797167043,0.0005840816,0.1050997000,0.1780873205,0.8417873877,9.7585637751
1520621017529627941,-0.0759518832,-0.0020332602,0.1037199619,0.2105566487,0.8693650886,9.7605451317
1520621017534642941,-0.0719311020,-0.0020316849,0.1037124943,0.2598619249,0.8693612485,9.7763352397
1520621017539658941,-0.0699177201,0.0000080660,0.1039948681,0.2935338209,0.8681594856,9.7283607654
1520621017544674941,-0.0679077685,0.0000103105,0.1034500425,0.2706850343,0.8969406353,9.6936907787
1520621017549689941,-0.0641390349,-0.0008638231,0.1039774642,0.2742927375,0.9005377756,9.7157328906
1520621017554705941,-0.0573510693,-0.0011634758,0.1080208280,0.2791030083,0.9029356818,9.7249808833
1520621017559721941,-0.0573492307,-0.0032184645,0.1136867302,0.3139774720,0.9149243699,9.7071975840
1520621017564737941,-0.0540778688,-0.0038174360,0.1201693181,0.3115723366,0.9077297147,9.7560380562
1520621017569752941,-0.0498043029,-0.0064549769,0.1263639317,0.2694824666,0.9197243970,9.8203539573
1520621017574767941,-0.0480429765,-0.0082178919,0.1320287899,0.2514439509,0.9281197849,9.8414399389
1520621017579783941,-0.0452786973,-0.0111437660,0.1368712512,0.2947363886,0.9305146940,9.8503133698
1520621017584798941,-0.0442721024,-0.0131969040,0.1419941948,0.3211928783,0.9041315441,9.8047579699
1520621017589814941,-0.0430115271,-0.0140880477,0.1484782934,0.2935338209,0.9065319792,9.8305920145
1520621017594829941,-0.0397458381,-0.0178878784,0.1533131520,0.2911286855,0.8885450601,9.8050657977
1520621017599844941,-0.0374875868,-0.0228514557,0.1573293475,0.2851158469,0.8789524051,9.8016472458
1520621017604861941,-0.0352260817,-0.0260696396,0.1624410651,0.2851158469,0.8249910860,9.8237806012
1520621017609876941,-0.0357318980,-0.0310350284,0.1667329404,0.3031543626,0.7962103109,9.7527423083
1520621017614892941,-0.0344755411,-0.0330829689,0.1699615959,0.3115723366,0.7842182511,9.7724285135
1520621017619909941,-0.0319573269,-0.0328066253,0.1759111615,0.3368262586,0.7878137055,9.7140720016
1520621017624923941,-0.0266786088,-0.0351509310,0.1815650394,0.3753084254,0.7818150063,9.7020818469
1520621017629939941,-0.0246703862,-0.0412896145,0.1890899059,0.3680930191,0.7854129895,9.6789056902
1520621017634953941,-0.0229094166,-0.0451002340,0.1977152074,0.3476493680,0.7974059859,9.6767686948
1520621017639970941,-0.0156242204,-0.0491869602,0.2014581918,0.3777135608,0.8165898912,9.6799437909
1520621017644986941,-0.0133638992,-0.0518158192,0.2041394425,0.3921443734,0.7974025205,9.6902813352
1520621017649999941,-0.0063276300,-0.0556178152,0.2103200297,0.3717007222,0.7842135681,9.6986281916
1520621017655017941,0.0002043753,-0.0585363849,0.2129911230,0.3211928783,0.7878149231,9.6747112729
1520621017660031941,0.0039735089,-0.0576556555,0.2110969702,0.2995466595,0.7518423962,9.6981999232
1520621017665047941,0.0074920493,-0.0556065727,0.2081299928,0.2995466595,0.7254613069,9.6749827695
1520621017670063941,0.0127720141,-0.0515156521,0.2046342182,0.2682798989,0.7290611634,9.6927157523
1520621017675078941,0.0170467875,-0.0459616469,0.1987165128,0.3043569303,0.7422488982,9.7353510642
1520621017680094941,0.0200627342,-0.0424492825,0.1933266712,0.3235980137,0.7170654508,9.6759189977
1520621017685110941,0.0218271068,-0.0380756401,0.1925451127,0.3729032900,0.7002736448,9.6952119084
1520621017690125941,0.0250979081,-0.0348676735,0.1920224075,0.3957520765,0.7074667078,9.7193875193
1520621017695139941,0.0273665915,-0.0302068202,0.1928654140,0.4366393787,0.7242514893,9.6852710020
1520621017700155941,0.0276276483,-0.0264340200,0.1985753112,0.4558804621,0.7182542886,9.6816031359
1520621017705171941,0.0273843471,-0.0241190677,0.2045455723,0.4618933007,0.6834787480,9.7083078324
1520621017710188941,0.0286502462,-0.0209300995,0.2107902483,0.5280345249,0.7026598435,9.7448339514
1520621017715203941,0.0291609238,-0.0206640132,0.2202606442,0.5496807438,0.7278401065,9.7585444317
1520621017720217941,0.0311804921,-0.0204009783,0.2310809694,0.5593012855,0.7230427955,9.8014547950
1520621017725234941,0.0306886559,-0.0189733898,0.2419148541,0.5292370926,0.7518245072,9.7854493419
1520621017730249941,0.0301889515,-0.0207393762,0.2483955505,0.5136037124,0.7290420567,9.7809751492
1520621017735265941,0.0309480308,-0.0201708804,0.2538095144,0.4907549258,0.7410352405,9.8114015947
1520621017740281941,0.0324601675,-0.0213554954,0.2611025610,0.4474624882,0.7254497868,9.7967303068
1520621017745296941,0.0347262518,-0.0199056994,0.2640854807,0.4378419465,0.7458359232,9.8328305310
1520621017750311941,0.0347295488,-0.0184531474,0.2657198715,0.4751215456,0.7182527900,9.8150624098
1520621017755328941,0.0349812828,-0.0199179843,0.2686842942,0.5124011447,0.7482283972,9.8274539030
1520621017760342941,0.0362423913,-0.0184693106,0.2719396268,0.4919574935,0.7554248319,9.7916194104
1520621017765358941,0.0354970648,-0.0155710577,0.2776447216,0.4775266810,0.7470319729,9.7824709048
1520621017770374941,0.0347528830,-0.0115058099,0.2828176170,0.4979703321,0.7350389764,9.7474192936
1520621017775389941,0.0372701367,-0.0091773913,0.2841834639,0.4751215456,0.7170536496,9.8371443142
1520621017780405941,0.0360230947,-0.0048187705,0.2885478782,0.4414496496,0.7026665870,9.8677018307
1520621017785420941,0.0357773746,-0.0039592840,0.2939659321,0.4546778944,0.6870767312,9.8803718600
1520621017790435941,0.0357790016,-0.0030865873,0.2945136931,0.4498676236,0.6678908591,9.8885723973
1520621017795452941,0.0327641644,-0.0022121583,0.2939848713,0.4486650559,0.6594969698,9.8839437119
1520621017800466941,0.0312558461,-0.0016256094,0.2923688424,0.4210059985,0.6630965453,9.8900201400
1520621017805483941,0.0312542231,-0.0010348276,0.2893972837,0.3777135608,0.6595024957,9.9334443563
1520621017810498941,0.0254717626,0.0001422862,0.2842765387,0.4029674828,0.6487082651,9.9227497786
1520621017815513941,0.0211953818,0.0010329768,0.2775274948,0.3536622065,0.5971490669,9.8826049291
1520621017820529941,0.0174193131,0.0010533529,0.2694181188,0.3175851752,0.5347965747,9.9434483721
1520621017825545941,0.0123898278,0.0025265172,0.2626749213,0.3163826074,0.4952250344,9.9330393697
1520621017830561941,0.0056019995,0.0048746028,0.2554005683,0.3476493680,0.4412612802,9.9165176432
1520621017835576941,-0.0009317975,0.0110187984,0.2451786439,0.3151800397,0.4364672473,9.9087033494
1520621017840592941,-0.0069611895,0.0197914791,0.2328114266,0.3043569303,0.3885024733,9.9216390519
1520621017845607941,-0.0162613435,0.0235998733,0.2239295809,0.3368262586,0.3669154169,9.9469112305
1520621017850622941,-0.0248094045,0.0262437532,0.2147668968,0.3428390971,0.3537244039,9.9991620459
1520621017855638941,-0.0326035729,0.0274244500,0.2080266101,0.3380288263,0.3896989913,9.9631473234
1520621017860654941,-0.0378859369,0.0291954563,0.1988511894,0.3813212639,0.4376612364,9.9696520315
1520621017865669941,-0.0446731498,0.0318341979,0.1918496054,0.3981572119,0.4772315592,9.9868817318
1520621017870685941,-0.0502022846,0.0356389700,0.1848545801,0.3789161285,0.5611728874,9.9393392569
1520621017875701941,-0.0552293510,0.0385676000,0.1786635898,0.4330316756,0.5923463237,9.8957828002
1520621017880716941,-0.0597488958,0.0438216758,0.1746538179,0.4883497904,0.6103291217,9.8929025396
1520621017885731941,-0.0640171417,0.0490758500,0.1706435793,0.4967677644,0.6666880660,9.8706849101
1520621017890748941,-0.0685397208,0.0525838039,0.1658088312,0.5111985769,0.6906697505,9.8821425022
1520621017895762941,-0.0690387038,0.0578401834,0.1615210459,0.5136037124,0.6726824568,9.8995687915
1520621017900776941,-0.0700424407,0.0613473303,0.1574914014,0.5520858792,0.6570906342,9.9363980376
1520621017905794941,-0.0723059296,0.0616451131,0.1547923660,0.5761372334,0.6522921993,9.9640600688
1520621017910810941,-0.0753264396,0.0593186828,0.1526158148,0.5905680460,0.6546893562,9.9325393827
1520621017915825941,-0.0768404778,0.0555337354,0.1512369856,0.5797449366,0.6798721481,9.9361066039
1520621017920841941,-0.0793542580,0.0549499818,0.1512372067,0.5821500720,0.7014564884,9.9500078731
1520621017925857941,-0.0806152410,0.0511593054,0.1520222778,0.5689218272,0.7458257143,9.9059318929
1520621017930872941,-0.0806159036,0.0496980121,0.1536344378,0.5280345249,0.7614177242,9.9249089667
1520621017935886941,-0.0803662357,0.0473619354,0.1555100077,0.5148062801,0.7842024225,9.9331505126
1520621017940902941,-0.0811226412,0.0450283785,0.1563052608,0.4895523581,0.8153820404,9.9449873555
1520621017945920941,-0.0813781663,0.0409445261,0.1578978797,0.4751215456,0.8489590962,9.9125550439
1520621017950933941,-0.0811234841,0.0418114938,0.1606095412,0.4306265402,0.8501617020,9.8990412342
1520621017955949941,-0.0826366442,0.0380236326,0.1603128956,0.4137905922,0.8345741878,9.8783017153
1520621017960965941,-0.0823934841,0.0321967690,0.1599974212,0.4210059985,0.8093916769,9.9212553673
1520621017965980941,-0.0811449954,0.0269552535,0.1588728885,0.3741058577,0.7938065042,9.8845384594
1520621017970996941,-0.0819009619,0.0246202397,0.1602092335,0.3729032900,0.7950057382,9.9228997456
1520621017976011941,-0.0826563991,0.0231615649,0.1607406100,0.4246137016,0.7734171832,9.8898774456
1520621017981025941,-0.0841701315,0.0187902062,0.1607100641,0.4294239725,0.7758150894,9.9084225900
1520621017986043941,-0.0849281680,0.0141204741,0.1633813538,0.4258162693,0.7734170896,9.9107843317
1520621017991058941,-0.0859398791,0.0077023364,0.1660397718,0.4691087070,0.7374395051,9.9243437573
1520621017996074941,-0.0862020100,-0.0036770557,0.1716350020,0.4895523581,0.7698147043,9.9601396618
1520621018001088941,-0.0854612352,-0.0173900439,0.1782927642,0.4871472227,0.7746114533,9.9369155154
1520621018006105941,-0.0837081377,-0.0258577168,0.1849886751,0.5412627698,0.8081831705,9.8898702882
1520621018011120941,-0.0814519604,-0.0346194910,0.1927636130,0.4811343841,0.8477594875,9.9078491122
1520621018016136941,-0.0791973709,-0.0460102818,0.2029534562,0.4354368110,0.8189836764,9.8478904828
1520621018021151941,-0.0746818289,-0.0538853615,0.2064021285,0.4017649151,0.7902069287,9.8331384172
1520621018026168941,-0.0699059711,-0.0559362943,0.2112475253,0.3729032900,0.7614298064,9.8253123950
1520621018031181941,-0.0633688614,-0.0547740237,0.2134086500,0.3584724774,0.7614309303,9.8324257194
1520621018036198941,-0.0565780260,-0.0492292320,0.2112739200,0.3139774720,0.7410490085,9.8154465259
1520621018041214941,-0.0510461508,-0.0463110354,0.2104742452,0.3308134200,0.6930820803,9.7502493673
1520621018046230941,-0.0447643779,-0.0445500688,0.2066882731,0.3488519357,0.6595047436,9.7896194274
1520621018051244941,-0.0362206568,-0.0445452645,0.2061313127,0.3524596388,0.6271276712,9.8268044909
1520621018056261941,-0.0324536795,-0.0454135706,0.2044943672,0.3969546442,0.6487087334,9.8344853634
1520621018061275941,-0.0239216098,-0.0512240735,0.1992936649,0.4210059985,0.6379145964,9.8633153852
1520621018066291941,-0.0189049168,-0.0582160615,0.1995015223,0.4234111339,0.6331178474,9.8516752129
1520621018071307941,-0.0133817567,-0.0631718030,0.2010767373,0.3969546442,0.6870812269,9.8553665357
1520621018076323941,-0.0055975304,-0.0713442715,0.2072225781,0.4246137016,0.7098627408,9.7934814724
1520621018081337941,0.0026966011,-0.0725160302,0.2107153805,0.4378419465,0.7314462382,9.7398730468
1520621018086354941,0.0104885271,-0.0748600798,0.2166351372,0.4751215456,0.7002656837,9.7581348961
1520621018091368941,0.0167795168,-0.0745931858,0.2266358903,0.4270188370,0.6906763067,9.7237481344
1520621018096384941,0.0268384091,-0.0740268746,0.2341969526,0.4222085662,0.7218543323,9.6621709223
1520621018101398941,0.0376570039,-0.0696744545,0.2425971526,0.4246137016,0.7146593025,9.6877216952
1520621018106416941,0.0462076641,-0.0691072772,0.2496199235,0.4246137016,0.6990704770,9.6098732517
1520621018111431941,0.0552606162,-0.0679534917,0.2552934776,0.3620801805,0.6978762069,9.6116452279
1520621018116447941,0.0650660142,-0.0673799946,0.2601495477,0.3199903106,0.6463164468,9.6388344974
1520621018121462941,0.0726172421,-0.0627345562,0.2674758545,0.2682798989,0.6079479806,9.6544831051
1520621018126477941,0.0816739382,-0.0572027185,0.2704772960,0.2815081438,0.5743710185,9.6811164019
1520621018131492941,0.0919823416,-0.0519472045,0.2680632628,0.2646721958,0.5827663127,9.7405414290
1520621018136509941,0.0995300177,-0.0455337912,0.2680981689,0.2225823258,0.6055532588,9.7316317369
1520621018141524941,0.1050634768,-0.0414500565,0.2673073865,0.1985309716,0.6283388001,9.7608972194
1520621018146540941,0.1123622258,-0.0347519130,0.2697798956,0.3007492272,0.6307291198,9.7819806861
1520621018151555941,0.1176483457,-0.0277544315,0.2690118108,0.3019517949,0.6571101155,9.8086725665
1520621018156571941,0.1229318192,-0.0251386444,0.2722685681,0.3392313940,0.6571072120,9.7687968153
1520621018161586941,0.1282206559,-0.0201990653,0.2782485691,0.3368262586,0.6990773142,9.8082921930
1520621018166603941,0.1342545015,-0.0219617635,0.2844465848,0.2923312532,0.7182670264,9.7959229872
1520621018171618941,0.1370231364,-0.0216824077,0.2893135001,0.3007492272,0.7302577750,9.7900186386
1520621018176633941,0.1407936263,-0.0225623688,0.2920052889,0.2911286855,0.7158688392,9.8528820847
1520621018181648941,0.1448199863,-0.0217012085,0.2974154085,0.2766978729,0.6870905929,9.8379427381
1520621018186665941,0.1490909569,-0.0260863282,0.3033261376,0.3055594980,0.6894866259,9.8922802439
1520621018191680941,0.1498446652,-0.0307685813,0.3108644532,0.2851158469,0.7050770437,9.9842734008
1520621018196695941,0.1523516199,-0.0374796389,0.3145962975,0.2418234092,0.7230675218,9.9579479318
1520621018201711941,0.1553548801,-0.0491454934,0.3188305078,0.3091672012,0.6978803279,9.9852084597
1520621018206727941,0.1596219773,-0.0570301411,0.3257967435,0.3043569303,0.7218635110,10.0154476359
1520621018211742941,0.1611214511,-0.0646121040,0.3281710560,0.2766978729,0.7386536311,10.0145383375
1520621018216758941,0.1613614356,-0.0756970009,0.3326853923,0.2562542218,0.7290621000,10.1007453308
1520621018221773941,0.1626135232,-0.0815358541,0.3369673313,0.2213797581,0.7302639565,10.1417586465
1520621018226789941,0.1673862172,-0.0844543846,0.3393711457,0.1925181330,0.6882962895,10.1281347673
1520621018231804941,0.1703971849,-0.0873648631,0.3385316765,0.1937207007,0.6918936172,10.1281195542
1520621018236820941,0.1709034325,-0.0853278882,0.3396284882,0.2009361070,0.7050835999,10.1594143479
1520621018241836941,0.1721601422,-0.0867916029,0.3423204982,0.1925181330,0.6463263747,10.2025529072
1520621018246851941,0.1736691192,-0.0873803371,0.3447481647,0.2081515133,0.6643122635,10.2000589135
1520621018251866941,0.1741722853,-0.0882601212,0.3469049292,0.1372000182,0.6835040362,10.1647043398
1520621018256882941,0.1721569235,-0.0917567947,0.3466114400,0.1203640702,0.6966958921,10.1950710907
1520621018261897941,0.1711481606,-0.0958431278,0.3490170968,0.1516308308,0.7302693888,10.2017068814
1520621018266912941,0.1718959844,-0.1007985547,0.3497895419,0.1708719142,0.7602464008,10.2410032615
1520621018271931941,0.1703870898,-0.1022589818,0.3508634104,0.1624539402,0.7686410394,10.2608334587
1520621018276944941,0.1671221809,-0.1022668176,0.3533043908,0.0842870388,0.8202101655,10.2813004530
1520621018281959941,0.1633497503,-0.1046000991,0.3535641529,0.1227692057,0.8405925556,10.2495281257
1520621018286976941,0.1605860356,-0.1040176846,0.3533031871,0.1516308308,0.8693696779,10.2410841325
1520621018291991941,0.1568180938,-0.1025607819,0.3527802116,0.1384025859,0.9185354655,10.2527863848
1520621018297006941,0.1533033877,-0.0993540168,0.3517290161,0.1095409608,0.9209359942,10.2147142170
1520621018302021941,0.1485310857,-0.0976075803,0.3517512224,0.0951101483,0.9257336798,10.2485521750
1520621018307038941,0.1442579510,-0.0978984533,0.3509452959,0.0902998774,0.9557125651,10.2032461475
1520621018312054941,0.1409870674,-0.0990572585,0.3479664661,0.0866921743,0.9473188631,10.1765601371
1520621018317068941,0.1369626833,-0.0999249747,0.3449912595,0.1372000182,0.9185355592,10.2423387942
1520621018322085941,0.1326912618,-0.0999288337,0.3458108315,0.1552385339,0.9377204011,10.1805508794
1520621018327100941,0.1279183875,-0.0987658947,0.3460991375,0.1335923151,0.9353238061,10.2133039398
1520621018332114941,0.1238976532,-0.0975968329,0.3442216761,0.0915024451,0.9125434162,10.2300058496
1520621018337131941,0.1203777995,-0.0981780666,0.3431415805,0.0482100075,0.8861656986,10.1955886385
1520621018342147941,0.1145964328,-0.0984680734,0.3417973626,0.0049175698,0.9125501597,10.2599022125
1520621018347163941,0.1090672470,-0.0972974170,0.3391110639,-0.0107158105,0.8633866199,10.2136165630
1520621018352177941,0.1010244182,-0.0946620814,0.3331939971,-0.0672364930,0.8454039156,10.2002385133
1520621018357193941,0.0962500149,-0.0905670863,0.3267408865,-0.0924904150,0.8322153378,10.2469829404
1520621018362208941,0.0874587900,-0.0835598212,0.3203174744,-0.1177443369,0.7758577047,10.1891765078
1520621018367225941,0.0781689309,-0.0721754293,0.3114934289,-0.1345802849,0.7638676117,10.2021356555
1520621018372241941,0.0681180912,-0.0663290956,0.3031696368,-0.1153392015,0.7866497812,10.1717104143
1520621018377255941,0.0590725801,-0.0598974138,0.2940367862,-0.1321751495,0.7578717223,10.1591187657
1520621018382270941,0.0490227989,-0.0522984023,0.2841030572,-0.1237571755,0.7374856795,10.1451109817
1520621018387286941,0.0377131324,-0.0484937095,0.2763071289,-0.0936929827,0.7518730231,10.1645607704
1520621018392302941,0.0291679254,-0.0458592992,0.2706615414,-0.0624262221,0.7794508176,10.1479595288
1520621018397318941,0.0206229812,-0.0435184587,0.2658253686,-0.0455902742,0.8094280170,10.1605500080
1520621018402332941,0.0105687934,-0.0417587927,0.2601759122,-0.0455902742,0.8022331744,10.1733406075
1520621018407348941,0.0030270647,-0.0408744810,0.2553267570,-0.0732493316,0.7878456435,10.2596225085
1520621018412365941,-0.0067771023,-0.0408666659,0.2510162249,-0.0371723002,0.8274144677,10.2429627533
1520621018417380941,-0.0130661201,-0.0426035942,0.2458741825,-0.0419825710,0.8070294552,10.2337323006
1520621018422396941,-0.0193561494,-0.0449225632,0.2404571480,0.0157406792,0.8214146446,10.2447778654
1520621018427411941,-0.0264006083,-0.0495816450,0.2382702797,0.0121329761,0.8765753850,10.1808412735
1520621018432425941,-0.0326901593,-0.0536583907,0.2363570033,0.0049175698,0.9245415639,10.1913240258
1520621018437442941,-0.0377253253,-0.0583130426,0.2328136717,-0.0083106751,0.9113520495,10.2042492277
1520621018442458941,-0.0445187952,-0.0638490932,0.2317018511,-0.0804647378,0.9281456350,10.2037730164
1520621018447474941,-0.0495544434,-0.0682094469,0.2270785590,-0.1021109567,0.9113593550,10.2063243660
1520621018452488941,-0.0523235644,-0.0696579830,0.2235554809,-0.1369854203,0.8969723860,10.1450842152
1520621018457504941,-0.0571040404,-0.0705187102,0.2178762156,-0.1947086706,0.8897820392,10.1247344827
1520621018462520941,-0.0581127444,-0.0690439706,0.2111255505,-0.2079369154,0.8813890865,10.1748436138
1520621018467536941,-0.0593780242,-0.0704788041,0.2027298459,-0.1730624517,0.8466112981,10.1896459494
1520621018472551941,-0.0644132686,-0.0716208163,0.1932611817,-0.1586316392,0.8346187699,10.1511664316
1520621018477567941,-0.0669312201,-0.0721907297,0.1881210307,-0.1345802849,0.8430108797,10.1555727209
1520621018482581941,-0.0684454700,-0.0730479916,0.1816240603,-0.2151523217,0.8370214528,10.1191741998
1520621018487598941,-0.0687050761,-0.0762402081,0.1767302470,-0.1802778580,0.8406161579,10.0979126540
1520621018492613941,-0.0677007982,-0.0744805807,0.1726835301,-0.1886958320,0.8681970433,10.0677519518
1520621018497629941,-0.0687111292,-0.0738785378,0.1653851040,-0.1826829934,0.8082395538,10.0514818781
1520621018502643941,-0.0687125288,-0.0718250059,0.1602602936,-0.2151523217,0.8094412230,10.0843367760
1520621018507659941,-0.0687171352,-0.0703462304,0.1521550321,-0.2692678688,0.8058480165,10.1313527697
1520621018512674941,-0.0714910430,-0.0720715823,0.1432188130,-0.2680653011,0.7854625356,10.0732537457
1520621018517690941,-0.0702476861,-0.0752471826,0.1323701896,-0.2115446185,0.7590770443,10.0297300072
1520621018522706941,-0.0672350365,-0.0731873702,0.1253459573,-0.2548370562,0.7374958884,9.9743895276
1520621018527722941,-0.0667374844,-0.0717069409,0.1166986706,-0.2788884105,0.7123158127,9.9572160255
1520621018532736941,-0.0662372899,-0.0673082957,0.1064503394,-0.3197757127,0.7087215759,9.9680768010
1520621018537752941,-0.0695138306,-0.0658140461,0.0921285897,-0.3173705773,0.6823402993,9.9669169724
1520621018542768941,-0.0680116045,-0.0622826048,0.0794368093,-0.3522450410,0.6319791176,9.9498733720
1520621018547785941,-0.0692733167,-0.0596314991,0.0686373148,-0.3330039576,0.6643544105,9.9903295574
1520621018552799941,-0.0710356467,-0.0555236677,0.0578498692,-0.3293962544,0.7207137294,9.9925637711
1520621018557816941,-0.0730495421,-0.0525858434,0.0486772734,-0.3305988221,0.7315060869,9.9844299445
1520621018562831941,-0.0755633968,-0.0481934787,0.0403283642,-0.3293962544,0.7938612952,10.0017895931
1520621018567846941,-0.0758115632,-0.0426427025,0.0349601516,-0.2969269262,0.8322312600,10.0014361377
1520621018572862941,-0.0768141122,-0.0382614019,0.0309371763,-0.2524319208,0.9005787987,9.9346941929
1520621018577877941,-0.0793255127,-0.0356333699,0.0285269383,-0.2283805665,0.9197631723,9.9251442307
1520621018582892941,-0.0810797667,-0.0327231275,0.0296346198,-0.2223677280,0.9221609848,9.9111376393
1520621018587909941,-0.0818297938,-0.0306873733,0.0310043110,-0.2247728634,0.9089706275,9.9018767605
1520621018592924941,-0.0861039439,-0.0330237654,0.0323471901,-0.2283805665,0.8789923979,9.9275082761
1520621018597940941,-0.0848554552,-0.0382652809,0.0312226574,-0.2560396239,0.8238340926,9.9382905776
1520621018602954941,-0.0838631894,-0.0458321436,0.0279164395,-0.2644575979,0.7938562376,9.8849431246
1520621018607971941,-0.0866390849,-0.0519413753,0.0238167002,-0.3077500356,0.7698768009,9.8935229011
1520621018612985941,-0.0874001439,-0.0539667937,0.0183916209,-0.3582578795,0.7255125389,9.8661663241
1520621018618002941,-0.0861534429,-0.0545192048,0.0072924594,-0.4231965360,0.6715562775,9.8877696086
1520621018623017941,-0.0894359270,-0.0588592017,-0.0046388389,-0.4376273486,0.6571677164,9.9239505640
1520621018628033941,-0.0901961392,-0.0562042569,-0.0167919963,-0.4123734266,0.6703562942,9.9329890467
1520621018633048941,-0.0914565772,-0.0532646804,-0.0265070841,-0.3462322024,0.6955330917,9.9055914015
1520621018638064941,-0.0922114773,-0.0509200593,-0.0316282713,-0.3161680096,0.7219118396,9.8762194508
1520621018643080941,-0.0952325518,-0.0509030300,-0.0383863180,-0.3438270670,0.7698796107,9.8136861200
1520621018648096941,-0.0972487446,-0.0532261527,-0.0416469196,-0.3185731450,0.7746742055,9.7657877343
1520621018653110941,-0.0985052819,-0.0529338036,-0.0421834547,-0.3173705773,0.8226397288,9.7018113382
1520621018658126941,-0.1002633191,-0.0526452936,-0.0413663269,-0.2933192230,0.8262352769,9.6946008653
1520621018663141941,-0.1015129094,-0.0488636144,-0.0391707260,-0.3041423324,0.8070498730,9.6912384884
1520621018668157941,-0.1010017810,-0.0442085494,-0.0364306311,-0.3618655827,0.8082535091,9.6453134036
1520621018673173941,-0.0987381509,-0.0409944207,-0.0393863825,-0.3534476087,0.8094519939,9.6010688286
1520621018678188941,-0.0997404412,-0.0383701685,-0.0401761456,-0.3534476087,0.8046554322,9.5987492180
1520621018683203941,-0.0972279743,-0.0363185658,-0.0442234396,-0.3618655827,0.7998595262,9.5325936254
1520621018688219941,-0.0944663648,-0.0360159002,-0.0480139931,-0.3462322024,0.8070531511,9.5428937392
1520621018693235941,-0.0911984646,-0.0339691012,-0.0501688660,-0.3630681504,0.7914656369,9.5233163642
1520621018698250941,-0.0854223708,-0.0351250905,-0.0528939520,-0.3390167961,0.8142474317,9.4963307347
1520621018703265941,-0.0809003522,-0.0348261063,-0.0550644971,-0.2969269262,0.8550149280,9.4889084364
1520621018708281941,-0.0743680332,-0.0354041302,-0.0558927157,-0.2716730042,0.9053768589,9.4932620938
1520621018713297941,-0.0688462295,-0.0385991813,-0.0589034424,-0.2019240768,0.9293542351,9.5343969961
1520621018718312941,-0.0638224954,-0.0397605650,-0.0597333069,-0.1646444777,0.9233556295,9.5073106751
1520621018723328941,-0.0588049242,-0.0467554667,-0.0584432660,-0.1429982589,0.9365444883,9.4989521137
1520621018728344941,-0.0535389200,-0.0581312359,-0.0533993955,-0.1550239360,0.9569308121,9.5002114295
1520621018733358941,-0.0472677636,-0.0692137699,-0.0488962605,-0.0912878472,0.9377396014,9.5193662181
1520621018738376941,-0.0420014929,-0.0794196303,-0.0454667731,-0.0924904150,0.9401379759,9.4252419242
1520621018743390941,-0.0359813256,-0.0896251955,-0.0420386858,-0.1141366338,0.9365422405,9.3557274860
1520621018748407941,-0.0289480869,-0.0937098348,-0.0391068724,-0.1694547486,0.9161611616,9.3295564864
1520621018753421941,-0.0216615656,-0.0948739746,-0.0385882079,-0.2103420508,0.9233591886,9.3148395709
1520621018758437941,-0.0141238317,-0.0954523331,-0.0391477475,-0.2163548894,0.9173639548,9.2812017682
1520621018763453941,-0.0073326867,-0.0890304741,-0.0423579919,-0.2392036759,0.9401494024,9.2558347798
1520621018768468941,0.0019731559,-0.0837840950,-0.0415236075,-0.2644575979,1.0097015138,9.2106891501
1520621018773485941,0.0120315817,-0.0770695715,-0.0447376962,-0.2548370562,0.9905145178,9.1466963016
1520621018778499941,0.0200780761,-0.0718142151,-0.0474180748,-0.2067343477,0.9929090522,9.1009021464
1520621018783514941,0.0298879670,-0.0659870554,-0.0457685399,-0.1911009674,0.9989035367,8.9961511781
1520621018788530941,0.0384391682,-0.0601531036,-0.0468221304,-0.2115446185,1.0037016907,9.1323163294
1520621018793545941,0.0479876416,-0.0616099271,-0.0454982518,-0.1550239360,1.0240826758,9.1352327448
1520621018798561941,0.0587978861,-0.0601567836,-0.0425312006,-0.0540082481,1.0312696509,9.1063510492
1520621018803577941,0.0633280786,-0.0572506357,-0.0390002741,0.0193483823,1.0180733930,9.0649748650
1520621018808593941,0.0741383191,-0.0572609708,-0.0336094253,0.0433997366,1.0216689411,9.0356836570
1520621018813609941,0.0804221424,-0.0604826784,-0.0266113540,-0.0083106751,1.0144781259,8.9699517851
1520621018818624941,0.0872008244,-0.0677762882,-0.0223507984,-0.0191337845,0.9821021774,8.9538186874
1520621018823640941,0.0949828081,-0.0771121096,-0.0170254876,-0.0022978365,0.9197455642,8.9153648718
1520621018828655941,0.1042749646,-0.0832355545,-0.0141134363,0.0097278406,0.9437274360,8.9070894268
1520621018833670941,0.1100498626,-0.0881926544,-0.0119975962,0.0229560855,0.9689083547,8.9092604029
1520621018838686941,0.1180911154,-0.0890665712,-0.0109370170,0.0205509501,1.0036836143,8.9011148945
1520621018843702941,0.1248777246,-0.0876055334,-0.0114795949,0.0554254137,0.9976851960,8.9286727495
1520621018848718941,0.1288993919,-0.0846799148,-0.0152524742,0.1095409608,1.0048758239,8.9606790366
1520621018853733941,0.1334288004,-0.0794295789,-0.0165735892,0.0866921743,1.0144707268,8.9678649417
1520621018858748941,0.1354442993,-0.0738844725,-0.0195110892,0.1035281222,1.0108719943,8.9735152987
1520621018863763941,0.1387140970,-0.0683315895,-0.0251563818,0.1359974505,1.0096703250,8.9476332645
1520621018868780941,0.1367035378,-0.0656975331,-0.0297319205,0.1372000182,1.0144667931,8.9685354733
1520621018873795941,0.1382090962,-0.0639333382,-0.0354028461,0.1359974505,1.0180643080,8.9627329506
1520621018878810941,0.1369535351,-0.0598391500,-0.0410508531,0.1035281222,1.0468462070,8.9688316427
1520621018883825941,0.1336878030,-0.0557464779,-0.0464245804,0.0975152837,1.0276604285,9.0119082037
1520621018888841941,0.1311736425,-0.0507677020,-0.0561217730,0.1552385339,1.0336516349,9.0578262725
1520621018893856941,0.1274037289,-0.0478407649,-0.0615034592,0.1504282631,1.0804184861,9.1322047016
1520621018898873941,0.1223832056,-0.0446411464,-0.0601169413,0.2009361070,1.1151896247,9.1095984432
1520621018903888941,0.1163517710,-0.0443499395,-0.0609151546,0.2562542218,1.1475621077,9.1241363099
1520621018908903941,0.1093204141,-0.0426131303,-0.0576421970,0.2863184146,1.1799365577,9.1121906717
1520621018913919941,0.1012882095,-0.0405984421,-0.0494953234,0.2971415240,1.1823339956,9.1225422832
1520621018918935941,0.0960159836,-0.0406172636,-0.0432629666,0.3175851752,1.2087134927,9.0711832377
1520621018923951941,0.0887349469,-0.0409348131,-0.0345941861,0.2779004406,1.1955260388,9.1424731485
1520621018928966941,0.0789380640,-0.0427073561,-0.0270140373,0.3031543626,1.1247747870,9.1271884620
1520621018933980941,0.0681373069,-0.0430211850,-0.0202325439,0.2742927375,1.0864045412,9.1042639231
1520621018938998941,0.0568295104,-0.0459547578,-0.0145523084,0.2791030083,1.0384385497,9.0577781183
1520621018944013941,0.0472826561,-0.0465521947,-0.0104808306,0.3031543626,0.9976659021,9.0738537900
1520621018949028941,0.0364808013,-0.0468623814,-0.0050520667,0.2863184146,0.9640912815,9.0566182430
1520621018954043941,0.0291968675,-0.0468776199,-0.0004392515,0.2682798989,0.9461055800,9.0579735029
1520621018959059941,0.0231616497,-0.0492081454,-0.0015280184,0.2490388155,0.9461070786,9.0465393443
1520621018964075941,0.0136069703,-0.0532919985,-0.0012708602,0.2742927375,0.9449059713,9.0416461316
1520621018969090941,0.0080774316,-0.0527055680,-0.0034205133,0.2586593572,0.9401106272,9.0081008000
1520621018974106941,0.0025485987,-0.0509506857,-0.0066434576,0.2538490864,0.9317170188,9.0627765715
1520621018979122941,-0.0029812027,-0.0500706854,-0.0096025253,0.2694824666,0.9413089246,9.0939929378
1520621018984136941,-0.0070019761,-0.0471453036,-0.0144426530,0.2442285447,0.9545014362,9.1116580405
1520621018989152941,-0.0112843786,-0.0485762196,-0.0247265782,0.2670773312,0.9485039545,9.1393329461
1520621018994168941,-0.0138018008,-0.0482697942,-0.0306716976,0.3067620657,0.9856742169,9.1423968616
1520621018999183941,-0.0173259591,-0.0494221420,-0.0360849737,0.2935338209,1.0048614939,9.1680740747
1520621019004199941,-0.0203551253,-0.0540614377,-0.0450429570,0.2574567895,1.0204531292,9.2265172227
1520621019009215941,-0.0261475711,-0.0595832543,-0.0512970165,0.2887235500,1.0492300642,9.2517519941
1520621019014231941,-0.0306846205,-0.0651009365,-0.0589061392,0.3055594980,1.0899995274,9.2596833735
1520621019019246941,-0.0352162636,-0.0685876681,-0.0632531496,0.2851158469,1.1139839280,9.2238325101
1520621019024261941,-0.0402459724,-0.0685772539,-0.0678430953,0.2742927375,1.1379675794,9.2459952039
1520621019029277941,-0.0457761697,-0.0679886381,-0.0708043861,0.3151800397,1.1259729908,9.2223660463
1520621019034292941,-0.0518136731,-0.0711896749,-0.0732525518,0.2923312532,1.1127842257,9.2481684721
1520621019039308941,-0.0583533781,-0.0740995242,-0.0756975609,0.2346080030,1.0684205257,9.2406385727
1520621019044323941,-0.0636363695,-0.0770096096,-0.0778743577,0.2297977321,1.0276501259,9.2604815977
1520621019049338941,-0.0651467147,-0.0790506204,-0.0776165731,0.2430259770,1.0264499552,9.2161925411
1520621019054355941,-0.0701686414,-0.0752609485,-0.0789310680,0.2153669196,0.9856813350,9.2188258029
1520621019059370941,-0.0744374205,-0.0723465917,-0.0797125405,0.1768847527,0.9485109790,9.2448037812
1520621019064386941,-0.0764516728,-0.0714564719,-0.0859246931,0.1504282631,0.9317250736,9.2160240643
1520621019069401941,-0.0794665922,-0.0685328816,-0.0899550500,0.1828975913,0.9221294214,9.2424466935
1520621019074418941,-0.0822289818,-0.0650278807,-0.0934403356,0.1299846119,0.9185361212,9.1895066021
1520621019079431941,-0.0834841430,-0.0591788295,-0.1015099172,0.0650459554,0.9137446171,9.1552790338
1520621019084447941,-0.0827300583,-0.0544959856,-0.1090510331,0.0963127160,0.9329284287,9.2014417511
1520621019089463941,-0.0807214161,-0.0515624135,-0.1160667293,0.1299846119,0.8981507340,9.2023100643
1520621019094479941,-0.0799654810,-0.0445441228,-0.1252133359,0.1335923151,0.8849599083,9.2080985317
1520621019099494941,-0.0774556917,-0.0421909375,-0.1330460494,0.1528333985,0.8909541119,9.2450940106
1520621019104510941,-0.0762013891,-0.0407196824,-0.1381776396,0.1516308308,0.9173352949,9.2822685967
1520621019109526941,-0.0739425458,-0.0377823697,-0.1465465321,0.1997335393,0.9065392846,9.2667030471
1520621019114541941,-0.0711801836,-0.0351406151,-0.1532953057,0.2334054352,0.9113332239,9.2373170293
1520621019119557941,-0.0686658701,-0.0322170441,-0.1565242928,0.2045438101,0.9317208589,9.2782531103
1520621019124572941,-0.0671621152,-0.0316176589,-0.1624746567,0.1672642110,0.9569057112,9.2599971077
1520621019129588941,-0.0593746585,-0.0304345000,-0.1678911507,0.1648590756,0.9760921453,9.2507046567
1520621019134602941,-0.0558603796,-0.0292493728,-0.1746524398,0.2069489456,0.9760888672,9.2909700181
1520621019139619941,-0.0525941455,-0.0263189505,-0.1803177402,0.2237848935,0.9449099050,9.3152415732
1520621019144634941,-0.0465672312,-0.0257170646,-0.1865470510,0.2261900290,0.9329183134,9.2977976972
1520621019149649941,-0.0412985689,-0.0283207039,-0.1927994156,0.2610644926,0.9077336484,9.2928342308
1520621019154665941,-0.0387911123,-0.0280086671,-0.2001065989,0.2586593572,0.9413097676,9.2974734753
1520621019159680941,-0.0330139129,-0.0262413416,-0.2063265506,0.2682798989,0.8729580142,9.3183650783
1520621019164696941,-0.0264777558,-0.0201000390,-0.2135967398,0.2863184146,0.8381815370,9.3879520506
1520621019169712941,-0.0209504007,-0.0162887497,-0.2214239386,0.2863184146,0.8261901328,9.4100444791
1520621019174728941,-0.0189414057,-0.0127709516,-0.2289762805,0.3548647743,0.8357779175,9.4140165120
1520621019179743941,-0.0141624587,-0.0089781684,-0.2300384317,0.3704981545,0.8609586488,9.4242990857
1520621019184758941,-0.0063665221,-0.0057742570,-0.2284051708,0.3717007222,0.8645559765,9.3499066596
1520621019189775941,-0.0051067309,-0.0043212127,-0.2267731136,0.3933469411,0.8477663246,9.3241451723
1520621019194789941,0.0031878868,-0.0043237911,-0.2246241483,0.4017649151,0.8825407413,9.3472722052
1520621019199805941,0.0092179139,-0.0054884232,-0.2241031502,0.3861315348,0.8837410993,9.3206938906
1520621019204820941,0.0160015318,-0.0060663486,-0.2249318356,0.3668904514,0.9377039169,9.3556928699
1520621019209836941,0.0232931574,-0.0031496481,-0.2249231397,0.3945495088,0.9916630818,9.3995325036
1520621019214851941,0.0295842099,0.0041417970,-0.2265025060,0.3729032900,1.0168467166,9.4613122680
1520621019219867941,0.0361235230,0.0082237402,-0.2264835177,0.3753084254,1.0252405122,9.4891721275
1520621019224883941,0.0441724363,0.0149345624,-0.2286116890,0.3981572119,1.0708060688,9.4807702888
1520621019229898941,0.0519678514,0.0201890919,-0.2310210550,0.4173982953,1.0863933957,9.5270535647
1520621019234913941,0.0605209933,0.0292362862,-0.2350261963,0.4378419465,1.1055780503,9.5826187791
1520621019239930941,0.0698239819,0.0344921348,-0.2377089085,0.3957520765,1.1283649964,9.5795198068
1520621019244945941,0.0796323398,0.0417878721,-0.2403769926,0.4210059985,1.1175707657,9.5606902214
1520621019249960941,0.0891906300,0.0496648231,-0.2424990719,0.4186008630,1.1247657956,9.5200315770
1520621019254977941,0.0969845946,0.0543387688,-0.2457245217,0.4149931599,1.1379566212,9.5979174744
1520621019259992941,0.1065333424,0.0569788111,-0.2508626214,0.4089803213,1.1331605278,9.6072778287
1520621019265008941,0.1150798823,0.0601939442,-0.2532889492,0.4534753267,1.1523433092,9.6358796310
1520621019270023941,0.1208589243,0.0613697596,-0.2562667963,0.4955651967,1.1895133842,9.6377579924
1520621019275039941,0.1281451006,0.0625483509,-0.2600590815,0.5532884469,1.2590590331,9.6940733818
1520621019280054941,0.1326663703,0.0619717247,-0.2616952041,0.6098091294,1.3022236863,9.7260211787
1520621019285069941,0.1384441695,0.0581757922,-0.2579471963,0.6603169733,1.3142111568,9.7406257443
1520621019290086941,0.1419577740,0.0535091907,-0.2558249326,0.7156350881,1.2986180230,9.6994274747
1520621019295101941,0.1457293970,0.0494057891,-0.2463939503,0.7444967133,1.3202003028,9.7072605129
1520621019300116941,0.1507549619,0.0432624596,-0.2367103173,0.7986122603,1.3261917902,9.6637286124
1520621019305133941,0.1532685499,0.0377001862,-0.2267470250,0.7938019895,1.3321878669,9.6323916992
1520621019310148941,0.1552802813,0.0300863693,-0.2124696265,0.7541172550,1.3513772045,9.6234621050
1520621019315162941,0.1545253105,0.0224794821,-0.2011630989,0.7974096926,1.3729583604,9.6985590318
1520621019320179941,0.1575410533,0.0154553840,-0.1893180342,0.7204453590,1.3801591971,9.7527597613
1520621019325194941,0.1592988081,0.0081430512,-0.1788255885,0.6855708953,1.4089412834,9.7751518789
1520621019330210941,0.1593002469,0.0043331994,-0.1707381117,0.6747477859,1.4053447051,9.7845578841
1520621019335225941,0.1575460281,0.0040236433,-0.1642439662,0.6206322388,1.4041497794,9.7978693645
1520621019340241941,0.1567932294,0.0040197058,-0.1628898366,0.5725295303,1.4041535258,9.7867161272
1520621019345256941,0.1552849111,0.0046062547,-0.1645058654,0.5508833115,1.4377311435,9.7357597427
1520621019350271941,0.1540358971,0.0104349098,-0.1650001619,0.6013911554,1.4365280694,9.7189992843
1520621019355288941,0.1510268229,0.0153879937,-0.1652273147,0.5821500720,1.4533175339,9.7273052022
1520621019360303941,0.1467641557,0.0215017529,-0.1638199661,0.5653141240,1.4233403345,9.6786882604
1520621019365318941,0.1434992508,0.0229573956,-0.1638027833,0.5809475043,1.3873649042,9.6727604550
1520621019370335941,0.1389798746,0.0255766273,-0.1632332827,0.5472756083,1.3717787012,9.6731033980
1520621019375349941,0.1349615122,0.0270305178,-0.1626736079,0.5713269626,1.3873656535,9.7588527481
1520621019380365941,0.1249075832,0.0270331355,-0.1650898521,0.5749346657,1.4041533385,9.8110977401
1520621019385381941,0.1176250607,0.0293548006,-0.1626236193,0.5893654783,1.3957582316,9.8179383285
1520621019390396941,0.1068256758,0.0331341953,-0.1609513747,0.5845552074,1.3861654828,9.8075352079
1520621019395411941,0.0985375660,0.0366275606,-0.1609092959,0.5725295303,1.4341320364,9.8006326212
1520621019400426941,0.0897509906,0.0418632087,-0.1586885778,0.5641115563,1.4221412877,9.7402947643
1520621019405443941,0.0774499247,0.0488414150,-0.1548247118,0.5665166917,1.4113488366,9.7983890760
1520621019410457941,0.0666529156,0.0543691168,-0.1531391287,0.5472756083,1.4137486160,9.7369803886
1520621019415473941,0.0553578368,0.0619304860,-0.1492726834,0.5484781760,1.4065536798,9.7253542601
1520621019420489941,0.0453137559,0.0665836012,-0.1473246238,0.5629089886,1.4101499772,9.7054538442
1520621019425505941,0.0345137084,0.0689017026,-0.1440402193,0.5869603429,1.3849661551,9.7017578673
1520621019430521941,0.0237127789,0.0697592393,-0.1394142007,0.5605038532,1.3477948625,9.6974030522
1520621019435535941,0.0149252783,0.0738271640,-0.1363907374,0.5544910146,1.3310073648,9.7276936911
1520621019440552941,0.0018645528,0.0767264200,-0.1328271402,0.5496807438,1.2878386842,9.7347554712
1520621019445567941,-0.0071772810,0.0790481243,-0.1306281864,0.5665166917,1.2242829306,9.7369778633
1520621019450582941,-0.0152114575,0.0825328469,-0.1273400234,0.5580987177,1.2110930415,9.6998840549
1520621019455599941,-0.0237478788,0.0866015985,-0.1245875727,0.5641115563,1.1847114839,9.6893919595
1520621019460614941,-0.0307797179,0.0886327060,-0.1223945757,0.5665166917,1.1571310669,9.6800982926
1520621019465629941,-0.0373103198,0.0909612224,-0.1223646562,0.6506964316,1.1427348256,9.6525636597
1520621019470645941,-0.0420735225,0.0964825460,-0.1174437237,0.6747477859,1.1151527226,9.6616536051
1520621019475661941,-0.0448384800,0.0920932127,-0.1109788345,0.6963940047,1.1103544751,9.6881769023
1520621019480676941,-0.0491172053,0.0865523192,-0.1099309553,0.7180402236,1.1151493509,9.6623943670
1520621019485692941,-0.0544006906,0.0795460965,-0.1059163197,0.7432941455,1.1211430861,9.6598184262
1520621019490707941,-0.0556669153,0.0696261470,-0.1013902907,0.7757634738,1.1463225062,9.6222892270
1520621019495724941,-0.0584426931,0.0582479557,-0.0966020310,0.7709532029,1.1415263192,9.6409350279
1520621019500737941,-0.0594520363,0.0506511681,-0.0890826792,0.8166507760,1.1511158835,9.6474537447
1520621019505753941,-0.0592091036,0.0418980758,-0.0848211042,0.8046250989,1.1283331520,9.6220258457
1520621019510769941,-0.0559482093,0.0348944722,-0.0805517913,0.8214610469,1.0971541898,9.6637295601
1520621019515784941,-0.0549437314,0.0293359786,-0.0722089740,0.8563355106,1.1031471757,9.6668706986
1520621019520800941,-0.0526857468,0.0232024926,-0.0665783955,0.8455124011,1.0947540357,9.6855785328
1520621019525816941,-0.0499295632,0.0141568151,-0.0615120731,0.8419046980,1.0659749465,9.6914524319
1520621019530831941,-0.0456600040,0.0074347917,-0.0534547615,0.7974096926,1.0731732545,9.6825813513
1520621019535848941,-0.0429007389,0.0013058732,-0.0494483918,0.8130430729,1.0635789135,9.6533849414
1520621019540863941,-0.0373731801,-0.0007374799,-0.0473098541,0.8094353698,1.0719731775,9.6429525756
1520621019545878941,-0.0328445282,0.0007102885,-0.0432489513,0.8551329428,1.0935541460,9.6099467047
1520621019550892941,-0.0240406717,0.0047836482,-0.0397170667,0.8298790209,1.1019500958,9.6159950452
1520621019555909941,-0.0157431490,0.0074057158,-0.0383597314,0.8587406460,1.1391212011,9.6354343216
1520621019560925941,-0.0059395504,0.0082778817,-0.0362068972,0.8370944272,1.1355254657,9.6275135129
1520621019565940941,0.0033647044,0.0108952441,-0.0329576074,0.8984253805,1.1595034975,9.6327038881
1520621019570956941,0.0141733219,0.0114756909,-0.0305383173,0.9104510576,1.1774896673,9.6116507062
1520621019575971941,0.0237240730,0.0079624218,-0.0230074447,0.8948176774,1.1810883061,9.5443950146
1520621019580987941,0.0335231827,0.0050444036,-0.0200718729,0.9032356514,1.1990747569,9.5361605314
1520621019586003941,0.0450885076,0.0059085175,-0.0146757550,0.9068433545,1.2050701780,9.4710395081
1520621019591018941,0.0553929435,0.0053232292,-0.0122644237,0.8671586200,1.1762938986,9.4505352480
1520621019596034941,0.0651976437,0.0076552315,-0.0111826577,0.8034225312,1.1427229308,9.4395669179
1520621019601049941,0.0755024364,0.0091176477,-0.0117317697,0.7865865832,1.1223388548,9.4885607135
1520621019606065941,0.0845495079,0.0114617379,-0.0152478837,0.7938019895,1.0683769738,9.4862188156
1520621019611081941,0.0923377095,0.0120570287,-0.0187750026,0.7661429321,1.0180152302,9.4853750002
1520621019616095941,0.1031434298,0.0129397864,-0.0204116778,0.7312684684,1.0360050527,9.4508325881
1520621019621113941,0.1091728493,0.0144114553,-0.0250110440,0.7420915778,1.0324067885,9.4728114857
1520621019626127941,0.1154547555,0.0167573763,-0.0296042076,0.7324710361,1.0671826100,9.5019248142
1520621019631142941,0.1275259006,0.0240503575,-0.0309237627,0.7432941455,1.0875671543,9.4913402943
1520621019636158941,0.1343170025,0.0307650579,-0.0346728758,0.7432941455,1.0995585585,9.4611128581
1520621019641174941,0.1401030424,0.0380643189,-0.0392273135,0.7144325204,1.1499247041,9.4253182046
1520621019646189941,0.1443813796,0.0462407849,-0.0451250111,0.7312684684,1.1223431632,9.3996140617
1520621019651204941,0.1494140483,0.0529526109,-0.0480592195,0.6963940047,1.0971639304,9.4197345116
1520621019656220941,0.1546937073,0.0576299426,-0.0529032775,0.6206322388,1.0983689714,9.3890928741
1520621019661235941,0.1587183228,0.0628873659,-0.0569289179,0.5977834523,1.0947733297,9.3416708761
1520621019666251941,0.1599775103,0.0684401897,-0.0628410226,0.5821500720,1.0528046324,9.3186210896
1520621019671266941,0.1612426843,0.0795344185,-0.0706047100,0.5532884469,1.0420146165,9.3526147097
1520621019676283941,0.1614975625,0.0880108918,-0.0802803595,0.5244268218,1.0072417920,9.3668752693
1520621019681297941,0.1592431454,0.0982303170,-0.0883147279,0.4991728998,0.9736678270,9.3950452719
1520621019686314941,0.1577361601,0.1046664094,-0.0980026719,0.4943626290,0.9424905507,9.4079060784
1520621019691329941,0.1562295708,0.1113938863,-0.1076883929,0.4991728998,0.9532824398,9.4241187495
1520621019696344941,0.1539690379,0.1169504308,-0.1154877847,0.5460730406,0.9101097318,9.4713522507
1520621019701360941,0.1506988247,0.1201798757,-0.1249263697,0.5532884469,0.9268971358,9.4747520814
1520621019706376941,0.1461702199,0.1199027445,-0.1308722015,0.6074039940,0.9388843254,9.4672407968
1520621019711391941,0.1444049299,0.1172883357,-0.1341354930,0.6194296711,0.9208962824,9.4136826644
1520621019716408941,0.1423904032,0.1140815898,-0.1338856672,0.6567092702,0.9748546980,9.4272129148
1520621019721422941,0.1401202222,0.1076695157,-0.1336598287,0.6518989994,0.9928421790,9.4260800510
1520621019726438941,0.1406188092,0.1021217517,-0.1293742664,0.6290502128,1.0168267670,9.4332519240
1520621019731452941,0.1375963586,0.0965820789,-0.1285992667,0.6362656191,1.0647918220,9.4656749508
1520621019736469941,0.1365883876,0.0930785149,-0.1261891637,0.6446835931,1.0755834302,9.4899875144
1520621019741484941,0.1353275340,0.0884093143,-0.1237874864,0.6651272442,1.0911706634,9.4897733271
1520621019746500941,0.1338192980,0.0869467019,-0.1219019802,0.6711400828,1.1451315142,9.5082564848
1520621019751514941,0.1330613046,0.0819841284,-0.1186918218,0.7216479267,1.1631146868,9.5170444840
1520621019756531941,0.1315474350,0.0755643369,-0.1154913786,0.7204453590,1.2158769591,9.5042211546
1520621019761547941,0.1317902383,0.0676897688,-0.1128464096,0.6987991402,1.2686408236,9.5252989859
1520621019766562941,0.1292705108,0.0598082903,-0.1080319396,0.7324710361,1.2782313245,9.5691233598
1520621019771578941,0.1300243994,0.0568816286,-0.1031857445,0.7240530621,1.2794311206,9.6052305885
1520621019776594941,0.1277615612,0.0542502690,-0.1002255469,0.6927863016,1.2866283983,9.5822850248
1520621019781608941,0.1270071316,0.0519101563,-0.0969953806,0.6855708953,1.2926246624,9.5707279689
1520621019786624941,0.1270095505,0.0533656220,-0.0964431734,0.6783554890,1.2458587478,9.5789788112
1520621019791640941,0.1249992030,0.0530719930,-0.0959005709,0.6074039940,1.2542582567,9.5366618978
1520621019796656941,0.1237421364,0.0524880032,-0.0956321376,0.5460730406,1.2074965569,9.5384666039
1520621019801670941,0.1249942397,0.0525030641,-0.1010453891,0.5039831707,1.1763221839,9.5237988123
1520621019806687941,0.1242334904,0.0513547130,-0.1075459828,0.4835395195,1.1535401081,9.5623707662
1520621019811703941,0.1247367977,0.0539868403,-0.1110440051,0.5328447958,1.1835147786,9.5723209209
1520621019816718941,0.1227185858,0.0519631148,-0.1172783885,0.5665166917,1.1643259094,9.5476068658
1520621019821734941,0.1207015109,0.0481794274,-0.1191973761,0.6025937231,1.1907041889,9.5518785644
1520621019826750941,0.1186750191,0.0368168284,-0.1200919804,0.6663298119,1.2062880504,9.5791344499
1520621019831764941,0.1179131563,0.0298182054,-0.1182501130,0.6963940047,1.2110822706,9.5811614341
1520621019836780941,0.1166469396,0.0228252129,-0.1185716793,0.6639246765,1.2206779228,9.5977381312
1520621019841795941,0.1138704639,0.0132055268,-0.1175577236,0.6879760307,1.2446588581,9.6091020829
1520621019846812941,0.1141084333,0.0038835056,-0.1184409667,0.6675323796,1.2410630291,9.6011695691
1520621019851826941,0.1133442889,-0.0025221503,-0.1203822957,0.6098091294,1.2410675247,9.5866235405
1520621019856843941,0.1130809857,-0.0089217819,-0.1244889253,0.5677192594,1.2374733816,9.6009824529
1520621019861858941,0.1118116052,-0.0167823721,-0.1272520739,0.5641115563,1.2326771008,9.5917250938
1520621019866874941,0.1133066921,-0.0228862878,-0.1327124770,0.5160088478,1.2230877239,9.5829054991
1520621019871888941,0.1147978665,-0.0307334117,-0.1400800398,0.5063883061,1.2051013668,9.6225295741
1520621019876904941,0.1157915437,-0.0359633707,-0.1455328401,0.4835395195,1.2446747803,9.5727411920
1520621019881918941,0.1155191844,-0.0464307308,-0.1539993273,0.4679061393,1.2782519297,9.5972656392
1520621019886934941,0.1177647806,-0.0548646989,-0.1597494611,0.4907549258,1.2554664821,9.5854440211
1520621019891951941,0.1200175002,-0.0595172241,-0.1630357817,0.4751215456,1.2518702785,9.5995454223
1520621019896966941,0.1207581653,-0.0650342956,-0.1701136138,0.5292370926,1.2710523105,9.5897028337
1520621019901981941,0.1230097401,-0.0708538157,-0.1728677349,0.5364524989,1.2602594848,9.6012645669
1520621019906997941,0.1242581856,-0.0758024898,-0.1745311364,0.5689218272,1.2542612538,9.6032786650
1520621019912012941,0.1252558145,-0.0810455606,-0.1751141106,0.5665166917,1.2482657390,9.5649571713
1520621019917029941,0.1260014429,-0.0859937032,-0.1770471245,0.5424653375,1.2266830846,9.5466180173
1520621019922044941,0.1254930391,-0.0897797136,-0.1778867289,0.5556935823,1.2134915097,9.5697450035
1520621019927060941,0.1254838497,-0.0944323965,-0.1814393949,0.5063883061,1.2027030859,9.5609382832
1520621019932074941,0.1257265746,-0.0987943248,-0.1847197586,0.5099960092,1.1835165582,9.5702190291
1520621019937091941,0.1262300582,-0.0958700845,-0.1884861038,0.5051857384,1.1787203711,9.6179184288
1520621019942107941,0.1267304683,-0.0929356463,-0.1960400914,0.5039831707,1.1439453925,9.6330719161
1520621019947122941,0.1237121225,-0.0905860839,-0.2033214453,0.5039831707,1.1283565670,9.6470328450
1520621019952136941,0.1214530832,-0.0847417971,-0.2097658845,0.5027806029,1.1511403287,9.6830487952
1520621019957153941,0.1229547330,-0.0832573318,-0.2197677676,0.5099960092,1.1691268731,9.6841231687
1520621019962169941,0.1226999685,-0.0820751382,-0.2259809641,0.5148062801,1.1631307963,9.6561907403
1520621019967184941,0.1219511803,-0.0765311148,-0.2289133302,0.5424653375,1.1991028549,9.6721564591
1520621019972200941,0.1232068003,-0.0750642303,-0.2324216450,0.4967677644,1.1727253246,9.6458976658
1520621019977216941,0.1219441981,-0.0768006464,-0.2370319302,0.4703112747,1.1883162107,9.6403292559
1520621019982229941,0.1189295021,-0.0724143061,-0.2432155388,0.4017649151,1.1859232684,9.6107830400
1520621019987246941,0.1211919483,-0.0686108525,-0.2486017571,0.4053726182,1.1667367407,9.6572523924
1520621019992261941,0.1219554028,-0.0575197343,-0.2552823275,0.3596750451,1.1343635083,9.6554044688
1520621019997278941,0.1214621004,-0.0461355386,-0.2627699788,0.3476493680,1.1391610066,9.6927054485
1520621020002292941,0.1237228373,-0.0411556204,-0.2722054932,0.3741058577,1.1727348779,9.7005502035
1520621020007309941,0.1229683881,-0.0344220207,-0.2840569815,0.3704981545,1.1907222653,9.7284592334
1520621020012323941,0.1244819598,-0.0244888610,-0.2934533033,0.4318291079,1.2266917013,9.7940694008
1520621020017340941,0.1272495558,-0.0186447903,-0.2990954393,0.4835395195,1.2878438355,9.8620729403
1520621020022355941,0.1277533100,-0.0130871629,-0.3068999651,0.5124011447,1.3741796982,9.8663564024
1520621020027370941,0.1292593074,-0.0113244248,-0.3120297990,0.5328447958,1.3765763868,9.8487229184
1520621020032385941,0.1297584355,-0.0116054144,-0.3158205981,0.5460730406,1.3945624629,9.8660087820
1520621020037402941,0.1337714779,-0.0156759382,-0.3185646478,0.5977834523,1.3885627334,9.8910784783
1520621020042418941,0.1362734655,-0.0244194032,-0.3175538240,0.5977834523,1.3729739079,9.9178229907
1520621020047432941,0.1365149163,-0.0290698023,-0.3219185944,0.6278476451,1.3921578132,9.8675394648
1520621020052447941,0.1397674210,-0.0372163626,-0.3260450967,0.6314553482,1.3921575322,9.8686664936
1520621020057464941,0.1430258965,-0.0456754320,-0.3223279910,0.6446835931,1.4005504849,9.8580702570
1520621020062480941,0.1475401212,-0.0535461411,-0.3205025940,0.7132299527,1.4149348314,9.8492540290
1520621020067496941,0.1543177565,-0.0582019931,-0.3219034944,0.6927863016,1.4233304066,9.8633905571
1520621020072510941,0.1603398173,-0.0663649528,-0.3195420291,0.6879760307,1.4437161684,9.8424989073
1520621020077525941,0.1683713436,-0.0756948483,-0.3163815522,0.6531015671,1.4497145866,9.8300489238
1520621020082540941,0.1741411412,-0.0832693099,-0.3161795412,0.7072171142,1.4569052145,9.8318394681
1520621020087557941,0.1826730266,-0.0922988828,-0.3162643254,0.7493069841,1.4581010768,9.8744279481
1520621020092573941,0.1919622388,-0.0992906539,-0.3155233105,0.7709532029,1.4844804802,9.8648943800
1520621020097589941,0.1992456825,-0.1019080741,-0.3163684910,0.7096222496,1.5120654866,9.8596537233
1520621020102602941,0.2072784085,-0.1059733805,-0.3204727377,0.6482912962,1.5276590888,9.8695326314
1520621020107619941,0.2117893480,-0.1109062060,-0.3275531245,0.6747477859,1.5324535900,9.8855404582
1520621020112635941,0.2175645675,-0.1105958031,-0.3337841917,0.6591144056,1.5660307394,9.9147134812
1520621020117650941,0.2253485037,-0.1123279464,-0.3386818247,0.6374681868,1.5744264083,9.9404831539
1520621020122665941,0.2281063339,-0.1131835346,-0.3451867294,0.6591144056,1.5756238628,9.9344605738
1520621020127683941,0.2306130417,-0.1137471083,-0.3519594902,0.6639246765,1.5948097349,9.9599622111
1520621020132696941,0.2346260449,-0.1160613122,-0.3576662063,0.6675323796,1.5852163306,9.9808550418
1520621020137713941,0.2358815786,-0.1140087449,-0.3622522586,0.6422784577,1.6259890718,9.9845475223
1520621020142729941,0.2376386083,-0.1134158171,-0.3657681761,0.6458861608,1.6223913696,9.9624351800
1520621020147744941,0.2373898656,-0.1099120169,-0.3684464913,0.6711400828,1.6331816665,9.9563681300
1520621020152758941,0.2358878395,-0.1043704741,-0.3705658195,0.6531015671,1.6451744757,9.9751263158
1520621020157775941,0.2386539771,-0.1020339443,-0.3721764442,0.7084196819,1.6619581332,10.0338408541
1520621020162789941,0.2361426589,-0.1014550736,-0.3710851472,0.7228504944,1.6799441157,10.0139264061
1520621020167806941,0.2326228954,-0.1011585115,-0.3735113030,0.6831657599,1.7375059468,10.0223915523
1520621020172822941,0.2313617869,-0.1026071853,-0.3767666356,0.6807606245,1.7794760489,10.0793190893
1520621020177836941,0.2270957796,-0.0976531367,-0.3775325465,0.7012042756,1.7518942269,10.1221463245
1520621020182852941,0.2188029221,-0.0961929073,-0.3799409423,0.6939888693,1.7518947889,10.1175679790
1520621020187868941,0.2140260529,-0.0947240151,-0.3850613312,0.7396864424,1.7602852128,10.0810885389
1520621020192884941,0.2105043566,-0.0947137386,-0.3893835314,0.7036094110,1.7698811460,10.0209988503
1520621020197899941,0.2069811196,-0.0961618416,-0.3931757552,0.6891785985,1.7710814103,10.0374081570
1520621020202914941,0.2001914408,-0.0961492028,-0.3988446175,0.7060145464,1.7566904140,9.9872861282
1520621020207931941,0.1936574596,-0.0932240772,-0.4039506239,0.7408890101,1.7422980128,10.0299600400
1520621020212946941,0.1876258094,-0.0914686633,-0.4074431806,0.7589275258,1.7698768376,10.0053525463
1520621020217961941,0.1810928397,-0.0879614971,-0.4122741949,0.7300659007,1.7410997153,10.0393637064
1520621020222977941,0.1745585487,-0.0859134388,-0.4163046870,0.7288633330,1.7506929323,10.0242581854
1520621020227992941,0.1672708004,-0.0838671327,-0.4197926870,0.7517121195,1.7518902932,10.0612232265
1520621020233007941,0.1577159053,-0.0864867789,-0.4222298724,0.7300659007,1.7602859621,10.0137778300
1520621020238024941,0.1471533490,-0.0917329218,-0.4233324691,0.7168376559,1.7818715200,9.9999398101
1520621020243040941,0.1376028056,-0.0926108167,-0.4233214029,0.7156350881,1.7686810690,10.0162343932
1520621020248055941,0.1260412600,-0.0923166768,-0.4260031695,0.7108248173,1.7818719883,10.0290519342
1520621020253069941,0.1152312822,-0.0925999116,-0.4305846037,0.7276607653,1.7758749749,10.0254074783
1520621020258085941,0.1046772215,-0.0899713879,-0.4343326361,0.7252556298,1.7974596898,9.9870590898
1520621020263101941,0.0948740659,-0.0893815322,-0.4383681762,0.6747477859,1.7710825342,9.9306313739
1520621020268117941,0.0840662404,-0.0893792099,-0.4407830201,0.6771529213,1.7590909427,9.9480518165
1520621020273132941,0.0740131934,-0.0879160274,-0.4445408783,0.6543041348,1.7782789690,9.9575526547
1520621020278148941,0.0647069235,-0.0887705141,-0.4531877475,0.6663298119,1.7686849090,9.9156077765
1520621020283163941,0.0551506289,-0.0893366284,-0.4607497433,0.6963940047,1.7878688143,9.9141342967
1520621020288180941,0.0463455924,-0.0913571846,-0.4691358923,0.6506964316,1.8070586201,9.8948039322
1520621020293195941,0.0385463706,-0.0916232125,-0.4796749369,0.6386707545,1.8082586972,9.9193248365
1520621020298209941,0.0352661290,-0.0947998565,-0.4907857052,0.6615195411,1.8190491814,9.9609290987
1520621020303225941,0.0302245923,-0.1008968625,-0.4997510701,0.6915837339,1.8442287888,9.9152883020
1520621020308241941,0.0244298139,-0.1084598276,-0.5054795995,0.7577249581,1.8670073056,9.8890551394
1520621020313256941,0.0224113786,-0.1119463031,-0.5095607311,0.7252556298,1.8754038174,9.9381730367
1520621020318272941,0.0193844901,-0.1186420444,-0.5123117204,0.7132299527,1.9137772475,9.8929290541
1520621020323288941,0.0151045378,-0.1233007716,-0.5142331767,0.6951914370,1.9005881077,9.8547667422
1520621020328304941,0.0113270538,-0.1270807777,-0.5177721726,0.7132299527,1.9005867029,9.8627261741
1520621020333318941,0.0093081794,-0.1305657963,-0.5223943961,0.6627221088,1.8969932153,9.8562484307
1520621020338334941,0.0072907517,-0.1349337097,-0.5237767381,0.6651272442,1.8562222536,9.8295354672
1520621020343349941,0.0072837185,-0.1378373569,-0.5275866115,0.6723426505,1.8862002022,9.8375710111
1520621020348366941,0.0085330461,-0.1413254663,-0.5305916270,0.7589275258,1.8957865821,9.7844224144
1520621020353380941,0.0100366129,-0.1454086295,-0.5290022751,0.7360787393,1.8957883616,9.7509426358
1520621020358397941,0.0090259603,-0.1500740895,-0.5279537940,0.7048119787,1.9305658691,9.7756180794
1520621020363412941,0.0125397883,-0.1532779409,-0.5279847821,0.7408890101,1.9401561826,9.8066354598
1520621020368427941,0.0130379442,-0.1558972910,-0.5290879069,0.7204453590,1.9521491791,9.8358763512
1520621020373444941,0.0157983148,-0.1591028947,-0.5285764030,0.7517121195,1.9377570589,9.8274510441
1520621020378459941,0.0165515958,-0.1593932554,-0.5288505721,0.7745609061,1.9665346495,9.8132548565
1520621020383474941,0.0173010073,-0.1617196656,-0.5304930324,0.7168376559,1.9677382856,9.8684362957
1520621020388490941,0.0170476895,-0.1614203668,-0.5334663474,0.7060145464,1.9893236561,9.8766556008
1520621020393505941,0.0170404367,-0.1643232856,-0.5375467667,0.7204453590,2.0348898683,9.8927407205
1520621020398521941,0.0167888752,-0.1640298143,-0.5383557146,0.7420915778,2.0372864633,9.9390134490
1520621020403535941,0.0115111137,-0.1652010621,-0.5370020762,0.7372813070,2.0660662081,9.9111407502
1520621020408552941,0.0112588465,-0.1660760426,-0.5367377329,0.7360787393,2.0588714592,9.9355644943
1520621020413567941,0.0104998496,-0.1686936997,-0.5386501618,0.7168376559,2.1308213832,9.9484651984
1520621020418583941,0.0079834780,-0.1695615535,-0.5413576227,0.6879760307,2.1751918267,9.9173249674
1520621020423599941,0.0067255412,-0.1672156725,-0.5470189683,0.6386707545,2.1871870710,9.9166310374
1520621020428614941,0.0077327673,-0.1631242404,-0.5513184463,0.6218348065,2.1140408164,9.9261633895
1520621020433629941,0.0087431180,-0.1564088907,-0.5561390083,0.5941757491,2.1380257790,9.9264092190
1520621020438646941,0.0067364792,-0.1491046691,-0.5636549825,0.5857577751,2.1704032261,9.9415674537
1520621020443661941,0.0079983091,-0.1406336294,-0.5711681317,0.5785423689,2.1080484860,9.9661035127
1520621020448677941,0.0082588562,-0.1304197755,-0.5767722543,0.5965808846,2.0960556769,10.0042903807
1520621020453691941,0.0049984048,-0.1219541502,-0.5829242730,0.6314553482,2.0996503820,10.0399738886
1520621020458707941,0.0042477702,-0.1172820951,-0.5866749460,0.6663298119,2.1020459467,10.0280106638
1520621020463723941,0.0012380374,-0.1123268259,-0.5877137365,0.6963940047,2.1631997668,10.0497391362
1520621020468738941,-0.0027774200,-0.1082482893,-0.5879456916,0.7324710361,2.1512055528,10.0191839351
1520621020473754941,-0.0047874225,-0.1108846495,-0.5830921395,0.7541172550,2.1512038669,10.0887018813
1520621020478770941,-0.0085617898,-0.1149676950,-0.5823046241,0.7673454998,2.1559993983,10.1060006077
1520621020483784941,-0.0118291607,-0.1161381552,-0.5809547196,0.8214610469,2.1116269880,10.0938957061
1520621020488801941,-0.0163514027,-0.1178998895,-0.5766309227,0.8010173958,2.1152260015,10.1150097752
1520621020493816941,-0.0216277176,-0.1199540320,-0.5720374029,0.7805737446,2.0984396278,10.0594422222
1520621020498832941,-0.0251456464,-0.1231759373,-0.5663738589,0.8274738854,2.0996351154,10.1019838819
1520621020503847941,-0.0311761245,-0.1264002839,-0.5601645559,0.8563355106,2.0696543570,10.0645435875
1520621020508863941,-0.0374590892,-0.1304988826,-0.5539614554,0.8876022711,2.0636562197,10.0665693906
1520621020513879941,-0.0424815139,-0.1322688265,-0.5466607203,0.8455124011,2.0420749702,10.0914051388
1520621020518894941,-0.0492605645,-0.1314133567,-0.5406894398,0.8467149689,2.0204903489,10.1076844972
1520621020523910941,-0.0545330100,-0.1314314498,-0.5347276289,0.8274738854,1.9869159156,10.1706602931
1520621020528925941,-0.0615653823,-0.1317401597,-0.5293058658,0.8310815886,1.9353525965,10.1451082925
1520621020533940941,-0.0733687904,-0.1329409193,-0.5179298945,0.8370944272,1.9041744771,10.1450801701
1520621020538957941,-0.0821572711,-0.1341383122,-0.5073711616,0.8779817294,1.8801884842,10.1877049112
1520621020543972941,-0.0914507213,-0.1356207306,-0.4992486314,0.9032356514,1.8442123047,10.1700620259
1520621020548988941,-0.0999882992,-0.1371094095,-0.4886925883,0.9080459222,1.8310213854,10.1665416366
1520621020554002941,-0.1062630899,-0.1386008445,-0.4767880162,0.9248818702,1.7998424231,10.1420031456
1520621020559019941,-0.1173085556,-0.1374731463,-0.4643134768,0.9453255213,1.8346159032,10.1487431125
1520621020564034941,-0.1240790401,-0.1351826068,-0.4502147040,1.0150744487,1.8346104709,10.1829285378
1520621020569050941,-0.1300932053,-0.1299728276,-0.4379889218,1.0198847195,1.8597920452,10.2026136087
