#timestamp [ns],w_RS_S_x [rad s^-1],w_RS_S_y [rad s^-1],w_RS_S_z [rad s^-1],a_RS_S_x [m s^-2],a_RS_S_y [m s^-2],a_RS_S_z [m s^-2]
1403637130498319104,-0.032114058236695664,0.05445427266222308,0.07749261878854824,9.4470728333333334,-0.9398039583333333,-2.4516624999999999
1403637130503319040,-0.017453292519943295,0.043284165449459372,0.066322511575784518,9.2509398333333337,-1.1359369583333332,-2.4108014583333333
1403637130508318976,0.0034906585039886592,0.033510321638291124,0.05375614096142535,9.1692177499999996,-1.1849702083333333,-2.4434902916666665
1403637130513318912,0.019547687622336492,0.017453292519943295,0.050265482457436693,9.1447011249999992,-1.0296982499999998,-2.4353180833333332
1403637130518319104,0.029321531433504733,0.0048869219055841231,0.056548667764616284,9.2264232083333333,-0.7436709583333333,-2.4925235416666665
1403637130523319040,0.025132741228718346,0.00069813170079773186,0.064926248174189058,9.4879338749999995,-0.4494714583333333,-2.4598347083333332
1403637130528318976,0.0027925268031909274,0.0048869219055841231,0.075398223686155036,9.422556208333333,-0.3350605416666666,-2.3944570416666666
1403637130533318912,-0.017453292519943295,0.0013962634015954637,0.092153384505300612,9.4634172499999991,-0.43312704166666666,-2.4189736666666666
1403637130538319104,-0.030019663134302467,0.014660765716752367,0.10262536001726656,9.5860003749999994,-0.66194887499999999,-2.3862848333333333
1403637130543319040,-0.0307177948351002,0.025132741228718346,0.11519173063162574,9.6350336250000002,-0.84173745833333324,-2.3535959999999996
1403637130548318976,-0.020245819323134219,0.036302848441482058,0.11309733552923257,9.6595502499999988,-0.99700941666666665,-2.4108014583333333
1403637130553318912,-0.00069813170079773186,0.042586033748661642,0.1075122819228507,9.5778281666666665,-1.0133538333333332,-2.3045627499999997
1403637130558319104,0.017453292519943295,0.037000980142279788,0.089360857702109678,9.3163174999999985,-0.86625408333333331,-2.2718739166666664
1403637130563319040,0.029321531433504733,0.0153588974175501,0.070511301780570912,9.332661916666666,-0.67829329166666663,-2.3699404166666667
1403637130568318976,0.030019663134302467,0.020943951023931952,0.064228116473391328,9.422556208333333,-0.47398808333333331,-2.4761791249999998
1403637130573318912,0.017453292519943295,0.014660765716752367,0.070511301780570912,9.4143839999999983,-0.22064962499999999,-2.6151066666666667
1403637130578319104,-0.0020943951023931952,0.018849555921538759,0.075398223686155036,9.5206227083333328,-0.14709974999999997,-2.6477955
1403637130583319040,-0.020943951023931952,0.021642082724729686,0.087964594300514204,9.3408341249999989,-0.27785508333333331,-2.5987622500000001
1403637130588318976,-0.0307177948351002,0.020245819323134219,0.086568330898918744,9.3898673749999997,-0.67829329166666663,-2.5497290000000001
1403637130593318912,-0.02722713633111154,0.022340214425527419,0.07749261878854824,9.4307284166666658,-0.97249279166666658,-2.582417833333333
1403637130598319104,-0.0048869219055841231,0.024434609527920613,0.069115038378975438,9.3898673749999997,-1.0869037083333333,-2.557901208333333
1403637130603319040,0.012566370614359173,0.018849555921538759,0.069115038378975438,9.3163174999999985,-1.1032481249999999,-2.4598347083333332
1403637130608318976,0.030019663134302467,0.016057029118347832,0.071209433481368656,9.3898673749999997,-0.85808187499999988,-2.4680069166666665
1403637130613318912,0.035604716740684328,0.0013962634015954637,0.08237954069413235,9.2100787916666658,-0.72732654166666666,-2.3209071666666663
1403637130618319104,0.02583087292951608,-0.0062831853071795866,0.08307767239493008,9.3816951666666668,-0.67829329166666663,-2.2800461250000001
1403637130623319040,0.025132741228718346,-0.0097738438111682462,0.08377580409572781,9.5369671250000003,-0.73549874999999998,-2.1656352083333332
1403637130628318976,0.02583087292951608,-0.01117010721276371,0.072605696882964116,9.8148222083333323,-0.56388237500000005,-2.2146684583333331
1403637130633318912,0.024434609527920613,0.0041887902047863905,0.07819075048934597,9.7821333750000008,-0.47398808333333331,-2.1574629999999999
1403637130638319104,0.016057029118347832,0.0090757121103705145,0.065624379874986788,9.7249279166666671,-0.34323275000000003,-2.2718739166666664
1403637130643319040,0.0055850536063818549,0.025132741228718346,0.048869219055841226,9.5614837499999989,-0.4494714583333333,-2.3290793749999996
1403637130648318976,-0.0048869219055841231,0.037000980142279788,0.02722713633111154,9.4143839999999983,-0.4494714583333333,-2.557901208333333
1403637130653318912,-0.008377580409572781,0.037000980142279788,0.039793506945470715,9.3898673749999997,-0.34323275000000003,-2.7867230416666664
1403637130658319104,-0.011868238913561441,0.046076692252650306,0.061435589670200401,9.5860003749999994,-0.27785508333333331,-2.9992004583333332
1403637130663319040,-0.017453292519943295,0.055152404363020817,0.07749261878854824,9.3653507499999993,-0.30237170833333332,-2.9992004583333332
1403637130668318976,-0.032114058236695664,0.05305800926062762,0.072605696882964116,9.2591120416666666,-0.32688833333333334,-2.9174783749999995
1403637130673318912,-0.049567350756638949,0.041887902047863905,0.060039326268604934,9.0057735833333332,-0.57205458333333326,-2.8439284999999996
1403637130678319104,-0.049567350756638949,0.02652900463031381,0.048171087355043489,9.0057735833333332,-0.71915433333333334,-2.7622064166666664
1403637130683319040,-0.046076692252650306,0.0090757121103705145,0.069115038378975438,8.9649125416666671,-0.77635979166666658,-2.6477955
1403637130688318976,-0.042586033748661642,-0.0020943951023931952,0.089360857702109678,9.242767624999999,-0.81722083333333329,-2.5252123749999997
1403637130693318912,-0.035604716740684328,-0.011868238913561441,0.099134701513277898,9.4062117916666654,-1.1522813749999998,-2.2637017083333331
1403637130698319104,-0.023038346126325153,-0.01117010721276371,0.090757121103705138,9.6186892083333326,-1.4791697083333333,-1.9368133750000001
1403637130703319040,0.0062831853071795866,-0.014660765716752367,0.08168140899333462,9.5369671250000003,-1.6916471249999998,-1.6834749166666665
1403637130708318976,0.048869219055841226,-0.013264502315156905,0.075398223686155036,9.8066499999999994,-1.3075533333333333,-1.8796079166666666
1403637130713318912,0.060737457969402671,0.0034906585039886592,0.091455252804502868,9.9374053333333343,-0.46581587499999999,-2.1819796249999999
1403637130718319104,0.041887902047863905,0.032812189937493394,0.10821041362364843,10.027299624999999,0.23699404166666665,-2.5170401666666664
1403637130723319040,-0.0048869219055841231,0.067718774977379978,0.12636183784438945,9.7903055833333319,0.3105439166666667,-2.6477955
1403637130728318976,-0.039793506945470715,0.080285145591739146,0.12077678423800758,9.5860003749999994,-0.15527195833333335,-2.6151066666666667
1403637130733318912,-0.041887902047863905,0.072605696882964116,0.11170107212763709,9.1201845000000006,-0.9398039583333333,-2.4434902916666665
1403637130738319104,-0.012566370614359173,0.05305800926062762,0.096342174710086978,9.0793234583333327,-1.2340034583333332,-2.4516624999999999
1403637130743319040,0.020943951023931952,0.0307177948351002,0.080285145591739146,8.9567403333333324,-1.0215260416666667,-2.5006957499999998
1403637130748318976,0.029321531433504733,0.010471975511965976,0.063529984772593598,9.1528733333333321,-0.29419949999999995,-2.7622064166666664
1403637130753318912,0.018849555921538759,0.0034906585039886592,0.055152404363020817,9.2182509999999986,-0.024516625,-2.7948952499999997
1403637130758319104,-0.0076794487087750501,-0.0090757121103705145,0.045378560551852569,9.2264232083333333,-0.032688833333333334,-2.5987622500000001
1403637130763319040,-0.035604716740684328,-0.023736477827122883,0.041189770347066175,9.2836286666666652,-0.28602729166666663,-2.4434902916666665
1403637130768318976,-0.042586033748661642,-0.016057029118347832,0.038397243543875248,9.7249279166666671,-0.52302133333333334,-2.4434902916666665
1403637130773318912,-0.044680428851054839,0.0069813170079773184,0.050265482457436693,9.7412723333333329,-0.83356525000000004,-2.4271458749999999
1403637130778319104,-0.030019663134302467,0.022340214425527419,0.057944931166211737,9.8066499999999994,-0.95614837499999994,-2.4925235416666665
1403637130783319040,-0.0153588974175501,0.040491638646268438,0.067020643276582248,9.6677224583333334,-0.9398039583333333,-2.5006957499999998
1403637130788318976,-0.0048869219055841231,0.05166174585903216,0.071907565182166372,9.5287949166666657,-0.80904862499999997,-2.4843513333333336
1403637130793318912,-0.008377580409572781,0.05445427266222308,0.075398223686155036,9.3244897083333331,-0.68646550000000006,-2.3944570416666666
1403637130798319104,-0.0090757121103705145,0.041887902047863905,0.067020643276582248,9.2509398333333337,-0.76818758333333337,-2.2064962499999998
1403637130803319040,-0.0069813170079773184,0.013962634015954637,0.056548667764616284,9.0874956666666655,-1.299381125,-2.0348798749999997
1403637130808318976,0.014660765716752367,-0.017453292519943295,0.046774823953448029,9.3735229583333322,-1.3892754166666665,-2.0757409166666667
1403637130813318912,0.050265482457436693,-0.029321531433504733,0.063529984772593598,9.4879338749999995,-0.89077070833333327,-2.2637017083333331
1403637130818319104,0.050963614158234416,-0.023736477827122883,0.07749261878854824,9.872027666666666,-0.10623870833333333,-2.557901208333333
1403637130823319040,0.019547687622336492,0.014660765716752367,0.090058989402907408,9.9374053333333343,0.23699404166666665,-2.7213453750000003
1403637130828318976,-0.017453292519943295,0.043284165449459372,0.085870199198121014,9.8965442916666664,0.04903325,-2.7131731666666665
1403637130833318912,-0.034906585039886591,0.060737457969402671,0.08307767239493008,9.5778281666666665,-0.59657120833333332,-2.5088679583333335
1403637130838319104,-0.020245819323134219,0.057944931166211737,0.080285145591739146,9.3653507499999993,-1.0215260416666667,-2.4026292499999999
1403637130843319040,-0.0020943951023931952,0.047472955654245766,0.085172067497323284,9.0548068333333322,-1.0378704583333334,-2.378112625
1403637130848318976,0.010471975511965976,0.032812189937493394,0.080983277292536876,9.1201845000000006,-0.76818758333333337,-2.5415567916666664
1403637130853318912,0.0055850536063818549,0.022340214425527419,0.074700091985357306,9.0956678750000002,-0.67829329166666663,-2.6886565416666666
1403637130858319104,0.00069813170079773186,0.013264502315156905,0.068416906678177722,9.3244897083333331,-0.71915433333333334,-2.6477955
1403637130863319040,0.0013962634015954637,0.0062831853071795866,0.07749261878854824,9.2345954166666662,-0.7436709583333333,-2.5170401666666664
1403637130868318976,0.00069813170079773186,-0.0020943951023931952,0.080983277292536876,9.4797616666666666,-0.65377666666666667,-2.4353180833333332
1403637130873318912,-0.008377580409572781,-0.0034906585039886592,0.087266462599716474,9.4634172499999991,-0.72732654166666666,-2.3045627499999997
1403637130878319104,-0.010471975511965976,-0.0034906585039886592,0.092153384505300612,9.6023447916666651,-0.91528733333333334,-2.3209071666666663
1403637130883319040,-0.0013962634015954637,0.01117010721276371,0.10192722831646883,9.6268614166666655,-1.0705592916666666,-2.3290793749999996
1403637130888318976,0.013264502315156905,0.025132741228718346,0.11728612573401893,9.7412723333333329,-0.95614837499999994,-2.5006957499999998
1403637130893318912,0.02652900463031381,0.044680428851054839,0.12845623294678266,9.5533115416666661,-0.7028099166666667,-2.4925235416666665
1403637130898319104,0.023736477827122883,0.050265482457436693,0.12636183784438945,9.4552450416666662,-0.3105439166666667,-2.4108014583333333
1403637130903319040,0.0097738438111682462,0.045378560551852569,0.11798425743481668,9.1773899583333325,-0.22882183333333334,-2.3127349583333334
1403637130908318976,-0.0027925268031909274,0.022340214425527419,0.1075122819228507,9.242767624999999,-0.35957716666666667,-2.3290793749999996
1403637130913318912,-0.0069813170079773184,0.0062831853071795866,0.087964594300514204,9.4143839999999983,-0.51484912499999991,-2.4516624999999999
1403637130918319104,0.0,0.00069813170079773186,0.070511301780570912,9.5614837499999989,-0.51484912499999991,-2.6069344583333329
1403637130923319040,0.00069813170079773186,0.01117010721276371,0.061435589670200401,9.5206227083333328,-0.49850470833333332,-2.6314510833333329
1403637130928318976,-0.0020943951023931952,0.02583087292951608,0.057246799465414,9.643205833333333,-0.45764366666666667,-2.6314510833333329
1403637130933318912,-0.0020943951023931952,0.034208453339088861,0.062133721370998138,9.4879338749999995,-0.52302133333333334,-2.4925235416666665
1403637130938319104,-0.00069813170079773186,0.030019663134302467,0.065624379874986788,9.422556208333333,-0.56388237500000005,-2.4189736666666666
1403637130943319040,-0.00069813170079773186,0.025132741228718346,0.060737457969402671,9.2754564583333323,-0.67829329166666663,-2.378112625
1403637130948318976,-0.0048869219055841231,0.013264502315156905,0.055850536063818547,9.4389006250000005,-0.64560445833333324,-2.4516624999999999
1403637130953318912,-0.0076794487087750501,0.012566370614359173,0.05445427266222308,9.4307284166666658,-0.64560445833333324,-2.4108014583333333
1403637130958319104,-0.0090757121103705145,0.0069813170079773184,0.048869219055841226,9.5206227083333328,-0.66194887499999999,-2.4353180833333332
1403637130963319040,-0.01117010721276371,0.01117010721276371,0.057246799465414,9.4552450416666662,-0.71915433333333334,-2.4271458749999999
1403637130968318976,-0.0055850536063818549,0.016057029118347832,0.062831853071795868,9.6186892083333326,-0.71098212499999991,-2.5088679583333335
1403637130973318912,-0.0027925268031909274,0.02652900463031381,0.067020643276582248,9.5451393333333332,-0.64560445833333324,-2.5497290000000001
1403637130978319104,-0.0034906585039886592,0.032812189937493394,0.062831853071795868,9.594172583333334,-0.52302133333333334,-2.5497290000000001
1403637130983319040,-0.01117010721276371,0.031415926535897934,0.068416906678177722,9.3408341249999989,-0.46581587499999999,-2.5252123749999997
1403637130988318976,-0.018151424220741029,0.025132741228718346,0.064228116473391328,9.4143839999999983,-0.47398808333333331,-2.557901208333333
1403637130993318912,-0.019547687622336492,0.024434609527920613,0.066322511575784518,9.3081452916666674,-0.53936574999999998,-2.5252123749999997
1403637130998319104,-0.018151424220741029,0.023736477827122883,0.062831853071795868,9.3490063333333335,-0.62108783333333339,-2.582417833333333
1403637131003319040,-0.019547687622336492,0.019547687622336492,0.070511301780570912,9.2591120416666666,-0.55571016666666662,-2.557901208333333
1403637131008318976,-0.019547687622336492,0.019547687622336492,0.069115038378975438,9.3735229583333322,-0.55571016666666662,-2.5415567916666664
1403637131013318912,-0.022340214425527419,0.020245819323134219,0.074001960284559576,9.3244897083333331,-0.58839899999999989,-2.5088679583333335
1403637131018319104,-0.02652900463031381,0.018849555921538759,0.076794487087750496,9.5042782916666653,-0.7028099166666667,-2.4189736666666666
1403637131023319040,-0.022340214425527419,0.012566370614359173,0.07958701389094143,9.3735229583333322,-0.98066500000000001,-2.2310128749999998
1403637131028318976,-0.0069813170079773184,0.0,0.064228116473391328,9.5860003749999994,-1.2176590416666666,-2.083913125
1403637131033318912,0.016755160819145562,-0.0055850536063818549,0.060039326268604934,9.6105169999999998,-1.1359369583333332,-2.0675687083333334
1403637131038319104,0.030019663134302467,0.0020943951023931952,0.060039326268604934,9.7004112916666649,-0.58839899999999989,-2.1738074166666665
1403637131043319040,0.019547687622336492,0.016755160819145562,0.069813170079773182,9.6758946666666663,-0.13075533333333333,-2.378112625
1403637131048318976,-0.008377580409572781,0.037000980142279788,0.069115038378975438,9.7739611666666661,0.065377666666666667,-2.6477955
1403637131053318912,-0.0307177948351002,0.048869219055841226,0.064228116473391328,9.4879338749999995,-0.27785508333333331,-2.6151066666666667
1403637131058319104,-0.034208453339088861,0.055850536063818547,0.055152404363020817,9.4062117916666654,-0.76818758333333337,-2.6314510833333329
1403637131063319040,-0.013264502315156905,0.046076692252650306,0.045378560551852569,9.0629790416666669,-1.1032481249999999,-2.4843513333333336
1403637131068318976,0.010471975511965976,0.027925268031909273,0.034906585039886591,9.1365289166666663,-0.98066500000000001,-2.5905900416666663
1403637131073318912,0.021642082724729686,0.014660765716752367,0.031415926535897934,9.1447011249999992,-0.69463770833333327,-2.6968287499999999
1403637131078319104,0.016057029118347832,0.008377580409572781,0.030019663134302467,9.3571785416666664,-0.5475379583333333,-2.7458620000000002
1403637131083319040,0.0048869219055841231,-0.0048869219055841231,0.046774823953448029,9.193734375,-0.57205458333333326,-2.5742456250000001
1403637131088318976,-0.0069813170079773184,-0.0090757121103705145,0.062133721370998138,9.3571785416666664,-0.76001537499999994,-2.4598347083333332
1403637131093318912,-0.0097738438111682462,-0.0097738438111682462,0.08237954069413235,9.4062117916666654,-0.92345954166666655,-2.3127349583333334
1403637131098319104,-0.0090757121103705145,-0.0041887902047863905,0.10192722831646883,9.6513780416666659,-0.88259849999999995,-2.3045627499999997
1403637131103319040,-0.0062831853071795866,0.0062831853071795866,0.12426744274199628,9.6186892083333326,-0.94797616666666662,-2.2963905416666663
1403637131108318976,-0.0041887902047863905,0.022340214425527419,0.14381513036433274,9.7903055833333319,-0.84173745833333324,-2.4026292499999999
1403637131113318912,-0.0013962634015954637,0.037699111843077518,0.16126842288427606,9.7167557083333325,-0.84173745833333324,-2.4434902916666665
1403637131118319104,-0.0013962634015954637,0.055152404363020817,0.15847589608108512,9.6922390833333321,-0.90711512499999991,-2.4271458749999999
1403637131123319040,0.0048869219055841231,0.058643062867009467,0.14381513036433274,9.3244897083333331,-1.1767979999999998,-2.2391850833333331
1403637131128318976,0.024434609527920613,0.046774823953448029,0.13264502315156904,8.9077070833333334,-1.2421756666666668,-2.2800461250000001
1403637131133318912,0.05305800926062762,0.013264502315156905,0.13823007675795088,8.9403959166666649,-0.84173745833333324,-2.4598347083333332
1403637131138319104,0.063529984772593598,0.0034906585039886592,0.13823007675795088,9.3081452916666674,-0.17161637500000002,-2.7376897916666665
1403637131143319040,0.048171087355043489,0.0020943951023931952,0.1361356816555577,9.5369671250000003,0.34323275000000003,-2.8112396666666668
1403637131148318976,0.0055850536063818549,0.0153588974175501,0.11309733552923257,9.6513780416666659,0.35140495833333335,-2.7785508333333331
1403637131153318912,-0.023736477827122883,0.019547687622336492,0.097040306410884708,9.5614837499999989,-0.13892754166666665,-2.557901208333333
1403637131158319104,-0.022340214425527419,0.022340214425527419,0.088662726001311934,9.5042782916666653,-0.66194887499999999,-2.378112625
1403637131163319040,0.0,0.0153588974175501,0.07958701389094143,9.3653507499999993,-0.87442629166666663,-2.2310128749999998
1403637131168318976,0.020245819323134219,0.011868238913561441,0.062831853071795868,9.4470728333333334,-0.56388237500000005,-2.2963905416666663
1403637131173318912,0.024434609527920613,0.0062831853071795866,0.052359877559829883,9.5206227083333328,-0.27785508333333331,-2.3454237916666667
1403637131178319104,0.0055850536063818549,0.012566370614359173,0.033510321638291124,9.6268614166666655,-0.13892754166666665,-2.3209071666666663
1403637131183319040,-0.013264502315156905,0.01117010721276371,0.02722713633111154,9.5778281666666665,-0.35957716666666667,-2.2473572916666664
1403637131188318976,-0.023038346126325153,0.018151424220741029,0.02652900463031381,9.5451393333333332,-0.63743225000000003,-2.3127349583333334
1403637131193318912,-0.014660765716752367,0.018849555921538759,0.035604716740684328,9.6840668749999992,-0.91528733333333334,-2.3944570416666666
1403637131198319104,-0.008377580409572781,0.032812189937493394,0.044680428851054839,9.594172583333334,-0.9398039583333333,-2.4680069166666665
1403637131203319040,-0.0076794487087750501,0.034208453339088861,0.055152404363020817,9.4797616666666666,-0.79270420833333322,-2.4434902916666665
1403637131208318976,-0.0062831853071795866,0.032812189937493394,0.069813170079773182,9.2999730833333327,-0.80904862499999997,-2.4434902916666665
1403637131213318912,-0.0041887902047863905,0.02583087292951608,0.075398223686155036,9.2999730833333327,-0.88259849999999995,-2.4189736666666666
1403637131218319104,-0.0020943951023931952,0.025132741228718346,0.08307767239493008,9.2836286666666652,-0.91528733333333334,-2.4680069166666665
1403637131223319040,0.0013962634015954637,0.017453292519943295,0.094945911308491532,9.2999730833333327,-0.85808187499999988,-2.4925235416666665
1403637131228318976,0.0048869219055841231,0.010471975511965976,0.1075122819228507,9.3653507499999993,-0.78453200000000001,-2.4843513333333336
1403637131233318912,0.00069813170079773186,0.0041887902047863905,0.10821041362364843,9.4797616666666666,-0.71098212499999991,-2.4761791249999998
1403637131238319104,0.0041887902047863905,0.011868238913561441,0.10821041362364843,9.4879338749999995,-0.63743225000000003,-2.4353180833333332
1403637131243319040,0.0027925268031909274,0.014660765716752367,0.1054178868204575,9.7085834999999996,-0.61291562499999996,-2.4761791249999998
1403637131248318976,0.0027925268031909274,0.02722713633111154,0.10053096491487339,9.4797616666666666,-0.55571016666666662,-2.378112625
1403637131253318912,0.00069813170079773186,0.032114058236695664,0.095644043009289262,9.5860003749999994,-0.40043820833333332,-2.5170401666666664
1403637131258319104,-0.0041887902047863905,0.038397243543875248,0.092851516206098328,9.4062117916666654,-0.49850470833333332,-2.4761791249999998
1403637131263319040,-0.011868238913561441,0.033510321638291124,0.088662726001311934,9.5696559583333336,-0.58839899999999989,-2.557901208333333
1403637131268318976,-0.0062831853071795866,0.036302848441482058,0.08377580409572781,9.3735229583333322,-0.67829329166666663,-2.4680069166666665
1403637131273318912,-0.0034906585039886592,0.018849555921538759,0.08168140899333462,9.2264232083333333,-0.59657120833333332,-2.3127349583333334
1403637131278319104,0.0027925268031909274,0.0041887902047863905,0.08237954069413235,9.2754564583333323,-0.41678262500000002,-2.3862848333333333
1403637131283319040,-0.0069813170079773184,0.013962634015954637,0.07749261878854824,9.6677224583333334,-0.21247741666666667,-2.6314510833333329
1403637131288318976,-0.022340214425527419,0.020943951023931952,0.062831853071795868,9.422556208333333,-0.17978858333333333,-2.5333845833333335
1403637131293318912,-0.039095375244672985,0.016057029118347832,0.045378560551852569,9.5369671250000003,-0.55571016666666662,-2.5170401666666664
1403637131298319104,-0.02583087292951608,0.021642082724729686,0.05166174585903216,9.3653507499999993,-0.97249279166666658,-2.378112625
1403637131303319040,-0.0090757121103705145,0.018151424220741029,0.055850536063818547,9.4143839999999983,-1.0623870833333333,-2.3862848333333333
1403637131308318976,0.0076794487087750501,0.017453292519943295,0.063529984772593598,9.4879338749999995,-0.98883720833333322,-2.3617682083333333
1403637131313318912,0.013962634015954637,0.02652900463031381,0.061435589670200401,9.6513780416666659,-0.67829329166666663,-2.4843513333333336
1403637131318319104,0.011868238913561441,0.023038346126325153,0.058643062867009467,9.2345954166666662,-0.51484912499999991,-2.4598347083333332
1403637131323319040,-0.0062831853071795866,0.014660765716752367,0.065624379874986788,9.4062117916666654,-0.53119354166666666,-2.5088679583333335
1403637131328318976,-0.0076794487087750501,0.022340214425527419,0.07749261878854824,9.2836286666666652,-0.66194887499999999,-2.4108014583333333
1403637131333318912,-0.0020943951023931952,0.0153588974175501,0.088662726001311934,9.3980395833333326,-0.76001537499999994,-2.4516624999999999
1403637131338319104,0.00069813170079773186,0.012566370614359173,0.092153384505300612,9.5696559583333336,-0.84173745833333324,-2.582417833333333
1403637131343319040,0.0069813170079773184,0.028623399732707,0.089360857702109678,9.5696559583333336,-0.76001537499999994,-2.5742456250000001
1403637131348318976,0.011868238913561441,0.032812189937493394,0.099832833214075656,9.3816951666666668,-0.57205458333333326,-2.5905900416666663
1403637131353318912,0.0055850536063818549,0.036302848441482058,0.092153384505300612,9.4961060833333324,-0.32688833333333334,-2.7131731666666665
1403637131358319104,-0.0076794487087750501,0.037699111843077518,0.085870199198121014,9.3571785416666664,-0.26151066666666667,-2.6477955
1403637131363319040,-0.021642082724729686,0.034208453339088861,0.070511301780570912,9.2672842499999994,-0.40043820833333332,-2.557901208333333
1403637131368318976,-0.024434609527920613,0.0153588974175501,0.068416906678177722,9.1528733333333321,-0.79270420833333322,-2.378112625
1403637131373318912,-0.017453292519943295,0.00069813170079773186,0.071209433481368656,9.2345954166666662,-1.1032481249999999,-2.2637017083333331
1403637131378319104,0.0034906585039886592,-0.016755160819145562,0.085870199198121014,9.3898673749999997,-1.32389775,-2.2228406666666665
1403637131383319040,0.023038346126325153,-0.0090757121103705145,0.089360857702109678,9.6840668749999992,-1.2094868333333333,-2.2146684583333331
1403637131388318976,0.031415926535897934,-0.0090757121103705145,0.089360857702109678,9.7085834999999996,-0.94797616666666662,-2.1574629999999999
1403637131393318912,0.032114058236695664,0.008377580409572781,0.090757121103705138,9.8556832499999985,-0.60474341666666664,-2.1983240416666665
1403637131398319104,0.0307177948351002,0.02583087292951608,0.094247779607693802,9.7984777916666665,-0.30237170833333332,-2.2800461250000001
1403637131403319040,0.018151424220741029,0.044680428851054839,0.097040306410884708,9.6758946666666663,-0.17978858333333333,-2.4271458749999999
1403637131408318976,-0.0069813170079773184,0.050963614158234416,0.098436569812480182,9.6186892083333326,-0.16344416666666667,-2.5742456250000001
1403637131413318912,-0.023038346126325153,0.062831853071795868,0.088662726001311934,9.4143839999999983,-0.37592158333333331,-2.6151066666666667
1403637131418319104,-0.025132741228718346,0.05166174585903216,0.078888882190143686,9.2509398333333337,-0.75184316666666662,-2.5415567916666664
1403637131423319040,-0.0048869219055841231,0.041189770347066175,0.070511301780570912,9.0548068333333322,-1.0869037083333333,-2.4598347083333332
1403637131428318976,0.016057029118347832,0.01117010721276371,0.062133721370998138,9.0466346249999994,-1.1522813749999998,-2.4108014583333333
1403637131433318912,0.033510321638291124,-0.0055850536063818549,0.05305800926062762,9.1692177499999996,-0.89077070833333327,-2.4108014583333333
1403637131438319104,0.041887902047863905,-0.018151424220741029,0.05445427266222308,9.2999730833333327,-0.48216029166666663,-2.4680069166666665
1403637131443319040,0.025132741228718346,-0.013264502315156905,0.055850536063818547,9.471589458333332,-0.21247741666666667,-2.557901208333333
1403637131448318976,0.0,-0.0055850536063818549,0.060039326268604934,9.6186892083333326,-0.18796079166666665,-2.5252123749999997
1403637131453318912,-0.016755160819145562,0.0055850536063818549,0.064926248174189058,9.5778281666666665,-0.40861041666666664,-2.3944570416666666
1403637131458319104,-0.020245819323134219,0.016057029118347832,0.070511301780570912,9.7085834999999996,-0.64560445833333324,-2.3862848333333333
1403637131463319040,-0.016057029118347832,0.0307177948351002,0.074001960284559576,9.5860003749999994,-0.84990966666666667,-2.4108014583333333
1403637131468318976,-0.0090757121103705145,0.037000980142279788,0.069813170079773182,9.6350336250000002,-0.84173745833333324,-2.557901208333333
1403637131473318912,-0.0055850536063818549,0.050265482457436693,0.063529984772593598,9.332661916666666,-0.86625408333333331,-2.6069344583333329
1403637131478319104,0.0034906585039886592,0.038397243543875248,0.063529984772593598,9.0466346249999994,-0.62108783333333339,-2.582417833333333
1403637131483319040,0.0062831853071795866,0.020245819323134219,0.071907565182166372,9.0221180000000007,-0.41678262500000002,-2.582417833333333
1403637131488318976,0.0048869219055841231,0.0048869219055841231,0.07958701389094143,9.4470728333333334,-0.29419949999999995,-2.6314510833333329
1403637131493318912,-0.016057029118347832,0.0069813170079773184,0.07958701389094143,9.471589458333332,-0.24516625,-2.5905900416666663
1403637131498319104,-0.034906585039886591,0.0034906585039886592,0.067718774977379978,9.6922390833333321,-0.43312704166666666,-2.5497290000000001
1403637131503319040,-0.039793506945470715,0.012566370614359173,0.067718774977379978,9.5533115416666661,-0.83356525000000004,-2.4925235416666665
1403637131508318976,-0.030019663134302467,0.014660765716752367,0.07958701389094143,9.6105169999999998,-0.9398039583333333,-2.4843513333333336
1403637131513318912,-0.010471975511965976,0.02652900463031381,0.089360857702109678,9.5124504999999999,-0.89077070833333327,-2.3617682083333333
1403637131518319104,-0.0013962634015954637,0.02722713633111154,0.084473935796525554,9.5533115416666661,-0.65377666666666667,-2.4026292499999999
1403637131523319040,-0.0034906585039886592,0.033510321638291124,0.076794487087750496,9.332661916666666,-0.4903325,-2.3372515833333334
1403637131528318976,-0.010471975511965976,0.025132741228718346,0.069115038378975438,9.3653507499999993,-0.38409379166666668,-2.4189736666666666
1403637131533318912,-0.016755160819145562,0.02583087292951608,0.071907565182166372,9.3653507499999993,-0.4494714583333333,-2.5252123749999997
1403637131538319104,-0.021642082724729686,0.024434609527920613,0.071209433481368656,9.5696559583333336,-0.46581587499999999,-2.6069344583333329
1403637131543319040,-0.02652900463031381,0.023736477827122883,0.07609635538695278,9.5042782916666653,-0.6292600416666666,-2.5415567916666664
1403637131548318976,-0.02652900463031381,0.02722713633111154,0.07819075048934597,9.643205833333333,-0.88259849999999995,-2.5252123749999997
1403637131553318912,-0.020943951023931952,0.034906585039886591,0.086568330898918744,9.3408341249999989,-1.0296982499999998,-2.3127349583333334
1403637131558319104,-0.0069813170079773184,0.02652900463031381,0.093549647906896058,9.2999730833333327,-1.1686257916666667,-2.2963905416666663
1403637131563319040,0.0076794487087750501,0.020943951023931952,0.1054178868204575,9.2345954166666662,-1.1849702083333333,-2.3290793749999996
1403637131568318976,0.023038346126325153,0.020245819323134219,0.11100294042683936,9.3735229583333322,-0.96432058333333326,-2.4189736666666666
1403637131573318912,0.02583087292951608,0.021642082724729686,0.12077678423800758,9.4062117916666654,-0.65377666666666667,-2.4843513333333336
1403637131578319104,0.013962634015954637,0.025132741228718346,0.12147491593880534,9.4797616666666666,-0.37592158333333331,-2.5333845833333335
1403637131583319040,0.0020943951023931952,0.019547687622336492,0.1291543646475804,9.4062117916666654,-0.26151066666666667,-2.4761791249999998
1403637131588318976,-0.0153588974175501,0.020245819323134219,0.12356931104119852,9.5287949166666657,-0.3350605416666666,-2.4434902916666665
1403637131593318912,-0.020245819323134219,0.012566370614359173,0.11030480872604163,9.5533115416666661,-0.6701210833333332,-2.3127349583333334
1403637131598319104,-0.0090757121103705145,0.0090757121103705145,0.091455252804502868,9.6595502499999988,-0.92345954166666655,-2.3045627499999997
1403637131603319040,0.010471975511965976,0.0153588974175501,0.084473935796525554,9.5860003749999994,-1.0051816249999999,-2.3127349583333334
1403637131608318976,0.02652900463031381,0.023038346126325153,0.078888882190143686,9.6268614166666655,-0.84173745833333324,-2.3699404166666667
1403637131613318912,0.034208453339088861,0.020245819323134219,0.08237954069413235,9.471589458333332,-0.55571016666666662,-2.4353180833333332
1403637131618319104,0.029321531433504733,0.024434609527920613,0.075398223686155036,9.4634172499999991,-0.30237170833333332,-2.4434902916666665
1403637131623319040,0.0090757121103705145,0.018151424220741029,0.071209433481368656,9.3490063333333335,-0.36774937499999999,-2.4598347083333332
1403637131628318976,-0.0048869219055841231,0.018151424220741029,0.061435589670200401,9.3898673749999997,-0.48216029166666663,-2.4925235416666665
1403637131633318912,-0.0062831853071795866,0.016755160819145562,0.060737457969402671,9.3980395833333326,-0.71098212499999991,-2.4598347083333332
1403637131638319104,-0.0013962634015954637,0.018151424220741029,0.057944931166211737,9.4552450416666662,-0.85808187499999988,-2.5415567916666664
1403637131643319040,0.0090757121103705145,0.0153588974175501,0.059341194567807204,9.3816951666666668,-0.9398039583333333,-2.5006957499999998
1403637131648318976,0.017453292519943295,0.022340214425527419,0.061435589670200401,9.422556208333333,-0.75184316666666662,-2.5742456250000001
1403637131653318912,0.020245819323134219,0.018849555921538759,0.067020643276582248,9.4389006250000005,-0.58839899999999989,-2.5660734166666663
1403637131658319104,0.012566370614359173,0.018151424220741029,0.068416906678177722,9.4961060833333324,-0.47398808333333331,-2.5660734166666663
1403637131663319040,0.0055850536063818549,0.013962634015954637,0.075398223686155036,9.4143839999999983,-0.40861041666666664,-2.4843513333333336
1403637131668318976,-0.0055850536063818549,0.014660765716752367,0.076794487087750496,9.3081452916666674,-0.51484912499999991,-2.4189736666666666
1403637131673318912,-0.0062831853071795866,0.0027925268031909274,0.080983277292536876,9.4470728333333334,-0.55571016666666662,-2.4271458749999999
1403637131678319104,-0.008377580409572781,0.017453292519943295,0.080983277292536876,9.5451393333333332,-0.55571016666666662,-2.4761791249999998
1403637131683319040,-0.008377580409572781,0.020245819323134219,0.080983277292536876,9.6023447916666651,-0.55571016666666662,-2.4843513333333336
1403637131688318976,-0.0097738438111682462,0.0307177948351002,0.07749261878854824,9.5696559583333336,-0.56388237500000005,-2.5088679583333335
1403637131693318912,-0.0090757121103705145,0.031415926535897934,0.07958701389094143,9.5042782916666653,-0.59657120833333332,-2.4761791249999998
1403637131698319104,-0.0090757121103705145,0.034208453339088861,0.072605696882964116,9.4470728333333334,-0.58022679166666657,-2.4516624999999999
1403637131703319040,-0.008377580409572781,0.02583087292951608,0.064228116473391328,9.3653507499999993,-0.52302133333333334,-2.4680069166666665
1403637131708318976,-0.0097738438111682462,0.022340214425527419,0.060737457969402671,9.3571785416666664,-0.48216029166666663,-2.4761791249999998
1403637131713318912,-0.010471975511965976,0.014660765716752367,0.055850536063818547,9.4879338749999995,-0.53119354166666666,-2.5006957499999998
1403637131718319104,-0.016057029118347832,0.020943951023931952,0.048869219055841226,9.4797616666666666,-0.63743225000000003,-2.4925235416666665
1403637131723319040,-0.017453292519943295,0.018849555921538759,0.049567350756638949,9.4797616666666666,-0.7436709583333333,-2.4434902916666665
1403637131728318976,-0.013962634015954637,0.020245819323134219,0.050963614158234416,9.3163174999999985,-0.81722083333333329,-2.378112625
1403637131733318912,-0.0062831853071795866,0.013264502315156905,0.052359877559829883,9.422556208333333,-0.78453200000000001,-2.3862848333333333
1403637131738319104,-0.0034906585039886592,0.018849555921538759,0.060737457969402671,9.4389006250000005,-0.76818758333333337,-2.4026292499999999
1403637131743319040,-0.0062831853071795866,0.017453292519943295,0.060737457969402671,9.5451393333333332,-0.67829329166666663,-2.4189736666666666
1403637131748318976,-0.0062831853071795866,0.024434609527920613,0.072605696882964116,9.4634172499999991,-0.63743225000000003,-2.5006957499999998
1403637131753318912,-0.011868238913561441,0.02652900463031381,0.075398223686155036,9.5206227083333328,-0.65377666666666667,-2.5497290000000001
1403637131758319104,-0.0153588974175501,0.034208453339088861,0.078888882190143686,9.4470728333333334,-0.84990966666666667,-2.5660734166666663
1403637131763319040,-0.0069813170079773184,0.038397243543875248,0.07958701389094143,9.5042782916666653,-1.0869037083333333,-2.5088679583333335
1403637131768318976,0.0013962634015954637,0.034906585039886591,0.085172067497323284,9.1692177499999996,-1.1359369583333332,-2.2064962499999998
1403637131773318912,0.018151424220741029,0.0090757121103705145,0.094247779607693802,9.1447011249999992,-1.0051816249999999,-2.2637017083333331
1403637131778319104,0.029321531433504733,0.0013962634015954637,0.10821041362364843,9.3081452916666674,-0.80087641666666665,-2.3617682083333333
1403637131783319040,0.022340214425527419,-0.0034906585039886592,0.1054178868204575,9.594172583333334,-0.51484912499999991,-2.5415567916666664
1403637131788318976,0.0153588974175501,0.011868238913561441,0.1096066770252439,9.6268614166666655,-0.37592158333333331,-2.5497290000000001
1403637131793318912,0.0055850536063818549,0.022340214425527419,0.11030480872604163,9.7167557083333325,-0.35140495833333335,-2.5170401666666664
1403637131798319104,-0.0097738438111682462,0.032114058236695664,0.1096066770252439,9.5042782916666653,-0.40043820833333332,-2.4843513333333336
1403637131803319040,-0.012566370614359173,0.034906585039886591,0.11100294042683936,9.594172583333334,-0.48216029166666663,-2.4680069166666665
1403637131808318976,-0.0097738438111682462,0.038397243543875248,0.11100294042683936,9.422556208333333,-0.63743225000000003,-2.4761791249999998
1403637131813318912,-0.0048869219055841231,0.034906585039886591,0.099134701513277898,9.3816951666666668,-0.66194887499999999,-2.4516624999999999
1403637131818319104,0.0013962634015954637,0.020943951023931952,0.087266462599716474,9.242767624999999,-0.64560445833333324,-2.4026292499999999
1403637131823319040,0.0097738438111682462,0.010471975511965976,0.071907565182166372,9.4062117916666654,-0.59657120833333332,-2.4271458749999999
1403637131828318976,0.008377580409572781,0.0069813170079773184,0.065624379874986788,9.2836286666666652,-0.43312704166666666,-2.3862848333333333
1403637131833318912,0.0034906585039886592,0.00069813170079773186,0.055152404363020817,9.5533115416666661,-0.31871612500000002,-2.4680069166666665
1403637131838319104,-0.0055850536063818549,0.0034906585039886592,0.05305800926062762,9.5533115416666661,-0.36774937499999999,-2.4843513333333336
1403637131843319040,-0.011868238913561441,0.010471975511965976,0.050963614158234416,9.6840668749999992,-0.35140495833333335,-2.5252123749999997
1403637131848318976,-0.018849555921538759,0.019547687622336492,0.05375614096142535,9.6023447916666651,-0.50667691666666659,-2.5170401666666664
1403637131853318912,-0.022340214425527419,0.029321531433504733,0.056548667764616284,9.6350336250000002,-0.6292600416666666,-2.5742456250000001
1403637131858319104,-0.019547687622336492,0.039095375244672985,0.060737457969402671,9.4879338749999995,-0.77635979166666658,-2.5742456250000001
1403637131863319040,-0.013264502315156905,0.043982297150257102,0.062133721370998138,9.3980395833333326,-0.89077070833333327,-2.5415567916666664
1403637131868318976,-0.0090757121103705145,0.037699111843077518,0.071209433481368656,9.1528733333333321,-0.86625408333333331,-2.4843513333333336
1403637131873318912,-0.0020943951023931952,0.023736477827122883,0.078888882190143686,9.1773899583333325,-0.6701210833333332,-2.4353180833333332
1403637131878319104,-0.0048869219055841231,0.0069813170079773184,0.085172067497323284,9.1528733333333321,-0.59657120833333332,-2.4108014583333333
1403637131883319040,-0.01117010721276371,-0.0020943951023931952,0.085870199198121014,9.4879338749999995,-0.49850470833333332,-2.4598347083333332
1403637131888318976,-0.017453292519943295,0.0034906585039886592,0.07958701389094143,9.5042782916666653,-0.65377666666666667,-2.4108014583333333
1403637131893318912,-0.011868238913561441,0.0055850536063818549,0.075398223686155036,9.6922390833333321,-0.71098212499999991,-2.5006957499999998
1403637131898319104,-0.0048869219055841231,0.019547687622336492,0.08168140899333462,9.643205833333333,-0.84990966666666667,-2.4189736666666666
1403637131903319040,0.0020943951023931952,0.02722713633111154,0.08168140899333462,9.643205833333333,-0.83356525000000004,-2.4271458749999999
1403637131908318976,0.0097738438111682462,0.037699111843077518,0.088662726001311934,9.4961060833333324,-0.76001537499999994,-2.4434902916666665
1403637131913318912,0.0062831853071795866,0.039095375244672985,0.086568330898918744,9.5042782916666653,-0.69463770833333327,-2.4925235416666665
1403637131918319104,0.0027925268031909274,0.039095375244672985,0.092153384505300612,9.2264232083333333,-0.67829329166666663,-2.4598347083333332
1403637131923319040,0.0041887902047863905,0.024434609527920613,0.092851516206098328,9.3081452916666674,-0.65377666666666667,-2.4925235416666665
1403637131928318976,0.0034906585039886592,0.017453292519943295,0.092153384505300612,9.2999730833333327,-0.6701210833333332,-2.4925235416666665
1403637131933318912,0.0,0.011868238913561441,0.089360857702109678,9.3980395833333326,-0.59657120833333332,-2.5006957499999998
1403637131938319104,0.0,0.010471975511965976,0.085172067497323284,9.3244897083333331,-0.64560445833333324,-2.4761791249999998
1403637131943319040,0.0020943951023931952,0.013264502315156905,0.07749261878854824,9.5206227083333328,-0.62108783333333339,-2.4761791249999998
1403637131948318976,0.0020943951023931952,0.014660765716752367,0.065624379874986788,9.4470728333333334,-0.69463770833333327,-2.4680069166666665
1403637131953318912,0.0069813170079773184,0.017453292519943295,0.061435589670200401,9.5778281666666665,-0.64560445833333324,-2.4680069166666665
1403637131958319104,0.0097738438111682462,0.020943951023931952,0.063529984772593598,9.3816951666666668,-0.62108783333333339,-2.4271458749999999
1403637131963319040,0.011868238913561441,0.016057029118347832,0.060039326268604934,9.5451393333333332,-0.53119354166666666,-2.4108014583333333
1403637131968318976,0.0048869219055841231,0.018849555921538759,0.058643062867009467,9.4879338749999995,-0.53936574999999998,-2.3045627499999997
1403637131973318912,0.0013962634015954637,0.013264502315156905,0.055152404363020817,9.4389006250000005,-0.5475379583333333,-2.2800461250000001
1403637131978319104,-0.0013962634015954637,0.0041887902047863905,0.056548667764616284,9.3653507499999993,-0.65377666666666667,-2.2310128749999998
1403637131983319040,-0.0020943951023931952,0.0013962634015954637,0.048869219055841226,9.6023447916666651,-0.63743225000000003,-2.3127349583333334
1403637131988318976,-0.0027925268031909274,0.008377580409572781,0.042586033748661642,9.5860003749999994,-0.51484912499999991,-2.3862848333333333
1403637131993318912,-0.0076794487087750501,0.016057029118347832,0.039793506945470715,9.6513780416666659,-0.44129924999999998,-2.4516624999999999
1403637131998319104,-0.014660765716752367,0.028623399732707,0.049567350756638949,9.4307284166666658,-0.50667691666666659,-2.4680069166666665
1403637132003319040,-0.016057029118347832,0.036302848441482058,0.052359877559829883,9.5451393333333332,-0.55571016666666662,-2.5252123749999997
1403637132008318976,-0.016755160819145562,0.038397243543875248,0.057944931166211737,9.4389006250000005,-0.7028099166666667,-2.6641399166666666
1403637132013318912,-0.013264502315156905,0.044680428851054839,0.057246799465414,9.3898673749999997,-0.71915433333333334,-2.6804843333333328
1403637132018319104,-0.0097738438111682462,0.033510321638291124,0.059341194567807204,9.1528733333333321,-0.7436709583333333,-2.5660734166666663
1403637132023319040,-0.0076794487087750501,0.020245819323134219,0.065624379874986788,9.2999730833333327,-0.6701210833333332,-2.6069344583333329
1403637132028318976,-0.0062831853071795866,0.010471975511965976,0.069813170079773182,9.1283567083333317,-0.64560445833333324,-2.5660734166666663
1403637132033318912,-0.013962634015954637,0.00069813170079773186,0.071209433481368656,9.332661916666666,-0.64560445833333324,-2.5252123749999997
1403637132038319104,-0.013264502315156905,-0.0034906585039886592,0.074001960284559576,9.3163174999999985,-0.77635979166666658,-2.4353180833333332
1403637132043319040,-0.013264502315156905,-0.0013962634015954637,0.080983277292536876,9.5533115416666661,-0.75184316666666662,-2.3862848333333333
1403637132048318976,-0.0048869219055841231,0.0041887902047863905,0.089360857702109678,9.6023447916666651,-0.76818758333333337,-2.3127349583333334
1403637132053318912,-0.00069813170079773186,0.0097738438111682462,0.087266462599716474,9.7249279166666671,-0.68646550000000006,-2.288218333333333
1403637132058319104,0.0041887902047863905,0.017453292519943295,0.090757121103705138,9.6105169999999998,-0.6292600416666666,-2.2963905416666663
1403637132063319040,0.00069813170079773186,0.027925268031909273,0.078888882190143686,9.7004112916666649,-0.55571016666666662,-2.3617682083333333
1403637132068318976,-0.0034906585039886592,0.039095375244672985,0.08168140899333462,9.5533115416666661,-0.46581587499999999,-2.4189736666666666
1403637132073318912,-0.010471975511965976,0.039095375244672985,0.074700091985357306,9.5451393333333332,-0.44129924999999998,-2.4598347083333332
1403637132078319104,-0.014660765716752367,0.038397243543875248,0.074700091985357306,9.3081452916666674,-0.51484912499999991,-2.4189736666666666
1403637132083319040,-0.013962634015954637,0.028623399732707,0.071907565182166372,9.3816951666666668,-0.6701210833333332,-2.4271458749999999
1403637132088318976,-0.0062831853071795866,0.02583087292951608,0.070511301780570912,9.3081452916666674,-0.80904862499999997,-2.4271458749999999
1403637132093318912,0.0034906585039886592,0.019547687622336492,0.068416906678177722,9.3653507499999993,-0.73549874999999998,-2.4598347083333332
1403637132098319104,0.0090757121103705145,0.013264502315156905,0.070511301780570912,9.3244897083333331,-0.6701210833333332,-2.4516624999999999
1403637132103319040,0.0090757121103705145,0.0097738438111682462,0.062133721370998138,9.5287949166666657,-0.46581587499999999,-2.4843513333333336
1403637132108318976,0.0,0.0062831853071795866,0.064228116473391328,9.4634172499999991,-0.41678262500000002,-2.4516624999999999
1403637132113318912,-0.0097738438111682462,0.010471975511965976,0.059341194567807204,9.6513780416666659,-0.31871612500000002,-2.4843513333333336
1403637132118319104,-0.018151424220741029,0.018849555921538759,0.066322511575784518,9.5451393333333332,-0.3105439166666667,-2.4434902916666665
1403637132123319040,-0.032114058236695664,0.025132741228718346,0.057944931166211737,9.6023447916666651,-0.27785508333333331,-2.4843513333333336
1403637132128318976,-0.038397243543875248,0.02722713633111154,0.055850536063818547,9.5287949166666657,-0.49850470833333332,-2.4925235416666665
1403637132133318912,-0.037699111843077518,0.032812189937493394,0.050963614158234416,9.5369671250000003,-0.7028099166666667,-2.5170401666666664
1403637132138319104,-0.02722713633111154,0.033510321638291124,0.050963614158234416,9.4143839999999983,-0.94797616666666662,-2.5006957499999998
1403637132143319040,-0.0153588974175501,0.034906585039886591,0.049567350756638949,9.4389006250000005,-1.0296982499999998,-2.5497290000000001
1403637132148318976,-0.0020943951023931952,0.037000980142279788,0.062831853071795868,9.2999730833333327,-1.0296982499999998,-2.5742456250000001
1403637132153318912,0.00069813170079773186,0.034906585039886591,0.071209433481368656,9.332661916666666,-0.87442629166666663,-2.6069344583333329
1403637132158319104,0.0041887902047863905,0.02722713633111154,0.088662726001311934,9.0548068333333322,-0.96432058333333326,-2.5252123749999997
1403637132163319040,0.0097738438111682462,0.016755160819145562,0.10053096491487339,9.2264232083333333,-0.92345954166666655,-2.5088679583333335
1403637132168318976,0.013264502315156905,0.0097738438111682462,0.11239920382843484,9.2100787916666658,-0.89894291666666659,-2.5006957499999998
1403637132173318912,0.016057029118347832,0.0034906585039886592,0.11868238913561441,9.4797616666666666,-0.7436709583333333,-2.4761791249999998
1403637132178319104,0.016057029118347832,0.0069813170079773184,0.12426744274199628,9.5124504999999999,-0.6701210833333332,-2.3944570416666666
1403637132183319040,0.013962634015954637,0.0055850536063818549,0.12217304763960307,9.6595502499999988,-0.58022679166666657,-2.378112625
1403637132188318976,0.013264502315156905,0.014660765716752367,0.11728612573401893,9.594172583333334,-0.5475379583333333,-2.3045627499999997
1403637132193318912,0.013264502315156905,0.021642082724729686,0.1096066770252439,9.6513780416666659,-0.49850470833333332,-2.3209071666666663
1403637132198319104,0.016755160819145562,0.023038346126325153,0.10192722831646883,9.5287949166666657,-0.53936574999999998,-2.3127349583333334
1403637132203319040,0.018849555921538759,0.027925268031909273,0.094945911308491532,9.6840668749999992,-0.34323275000000003,-2.4271458749999999
1403637132208318976,0.008377580409572781,0.034906585039886591,0.08307767239493008,9.5778281666666665,-0.3105439166666667,-2.4843513333333336
1403637132213318912,0.0048869219055841231,0.035604716740684328,0.070511301780570912,9.5533115416666661,-0.29419949999999995,-2.5088679583333335
1403637132218319104,-0.0062831853071795866,0.033510321638291124,0.062831853071795868,9.3244897083333331,-0.30237170833333332,-2.5333845833333335
1403637132223319040,-0.01117010721276371,0.025132741228718346,0.05375614096142535,9.3735229583333322,-0.31871612500000002,-2.5415567916666664
1403637132228318976,-0.020245819323134219,0.020943951023931952,0.044680428851054839,9.3163174999999985,-0.46581587499999999,-2.5905900416666663
1403637132233318912,-0.023038346126325153,0.018849555921538759,0.037000980142279788,9.422556208333333,-0.51484912499999991,-2.5742456250000001
1403637132238319104,-0.022340214425527419,0.017453292519943295,0.032114058236695664,9.332661916666666,-0.62108783333333339,-2.5415567916666664
1403637132243319040,-0.018849555921538759,0.016057029118347832,0.032812189937493394,9.4143839999999983,-0.76001537499999994,-2.557901208333333
1403637132248318976,-0.011868238913561441,0.013264502315156905,0.041887902047863905,9.2591120416666666,-0.94797616666666662,-2.4353180833333332
1403637132253318912,-0.0048869219055841231,0.0097738438111682462,0.042586033748661642,9.3898673749999997,-1.0705592916666666,-2.3045627499999997
1403637132258319104,0.0062831853071795866,0.0076794487087750501,0.055152404363020817,9.3408341249999989,-1.1277647500000001,-2.2637017083333331
1403637132263319040,0.016755160819145562,0.0013962634015954637,0.074001960284559576,9.5451393333333332,-0.94797616666666662,-2.2800461250000001
1403637132268318976,0.018151424220741029,0.0069813170079773184,0.091455252804502868,9.5206227083333328,-0.80087641666666665,-2.2963905416666663
1403637132273318912,0.01117010721276371,0.0097738438111682462,0.094945911308491532,9.6268614166666655,-0.61291562499999996,-2.2800461250000001
1403637132278319104,0.0062831853071795866,0.012566370614359173,0.10332349171806432,9.5696559583333336,-0.53936574999999998,-2.3045627499999997
1403637132283319040,0.0013962634015954637,0.022340214425527419,0.10192722831646883,9.6513780416666659,-0.53119354166666666,-2.3617682083333333
1403637132288318976,0.0034906585039886592,0.025132741228718346,0.098436569812480182,9.5696559583333336,-0.59657120833333332,-2.3944570416666666
1403637132293318912,0.0055850536063818549,0.0307177948351002,0.090757121103705138,9.6023447916666651,-0.53936574999999998,-2.5415567916666664
1403637132298319104,0.0090757121103705145,0.039095375244672985,0.085870199198121014,9.4307284166666658,-0.45764366666666667,-2.582417833333333
1403637132303319040,0.00069813170079773186,0.039793506945470715,0.07609635538695278,9.4062117916666654,-0.35140495833333335,-2.6477955
1403637132308318976,-0.0097738438111682462,0.037000980142279788,0.07609635538695278,9.2264232083333333,-0.34323275000000003,-2.6477955
1403637132313318912,-0.013264502315156905,0.02583087292951608,0.072605696882964116,9.2509398333333337,-0.40043820833333332,-2.5905900416666663
1403637132318319104,-0.019547687622336492,0.022340214425527419,0.075398223686155036,9.1855621666666654,-0.6701210833333332,-2.5415567916666664
1403637132323319040,-0.018849555921538759,0.0090757121103705145,0.07749261878854824,9.422556208333333,-0.83356525000000004,-2.5415567916666664
1403637132328318976,-0.0090757121103705145,0.0062831853071795866,0.08377580409572781,9.3816951666666668,-0.95614837499999994,-2.4353180833333332
1403637132333318912,-0.0013962634015954637,0.0069813170079773184,0.092153384505300612,9.5206227083333328,-0.98883720833333322,-2.4108014583333333
1403637132338319104,0.0076794487087750501,0.010471975511965976,0.10053096491487339,9.4961060833333324,-0.94797616666666662,-2.3454237916666667
1403637132343319040,0.014660765716752367,0.011868238913561441,0.11030480872604163,9.6595502499999988,-0.77635979166666658,-2.3699404166666667
1403637132348318976,0.013962634015954637,0.020943951023931952,0.114493598930828,9.6186892083333326,-0.65377666666666667,-2.3372515833333334
1403637132353318912,0.0069813170079773184,0.024434609527920613,0.11728612573401893,9.594172583333334,-0.56388237500000005,-2.3209071666666663
1403637132358319104,0.0069813170079773184,0.032812189937493394,0.12147491593880534,9.4797616666666666,-0.57205458333333326,-2.2963905416666663
1403637132363319040,0.011868238913561441,0.029321531433504733,0.11868238913561441,9.5533115416666661,-0.6292600416666666,-2.4026292499999999
1403637132368318976,0.011868238913561441,0.034208453339088861,0.1165879940332212,9.4389006250000005,-0.67829329166666663,-2.4680069166666665
1403637132373318912,0.020245819323134219,0.037000980142279788,0.11100294042683936,9.4961060833333324,-0.55571016666666662,-2.5660734166666663
1403637132378319104,0.016755160819145562,0.036302848441482058,0.11239920382843484,9.3081452916666674,-0.392266,-2.5987622500000001
1403637132383319040,0.010471975511965976,0.0307177948351002,0.1075122819228507,9.332661916666666,-0.28602729166666663,-2.6886565416666666
1403637132388318976,0.0027925268031909274,0.02583087292951608,0.10192722831646883,9.3244897083333331,-0.3350605416666666,-2.6314510833333329
1403637132393318912,-0.0055850536063818549,0.022340214425527419,0.084473935796525554,9.3490063333333335,-0.392266,-2.5742456250000001
1403637132398319104,-0.0090757121103705145,0.01117010721276371,0.071907565182166372,9.242767624999999,-0.45764366666666667,-2.4925235416666665
1403637132403319040,-0.0097738438111682462,0.0041887902047863905,0.064926248174189058,9.422556208333333,-0.48216029166666663,-2.4598347083333332
1403637132408318976,-0.01117010721276371,0.0034906585039886592,0.060039326268604934,9.4552450416666662,-0.53936574999999998,-2.4026292499999999
1403637132413318912,-0.0153588974175501,0.00069813170079773186,0.052359877559829883,9.5614837499999989,-0.47398808333333331,-2.3617682083333333
1403637132418319104,-0.014660765716752367,0.0055850536063818549,0.043982297150257102,9.5696559583333336,-0.53119354166666666,-2.2800461250000001
1403637132423319040,-0.010471975511965976,0.0097738438111682462,0.036302848441482058,9.6758946666666663,-0.67829329166666663,-2.3290793749999996
1403637132428318976,-0.010471975511965976,0.023038346126325153,0.035604716740684328,9.6677224583333334,-0.71915433333333334,-2.3127349583333334
1403637132433318912,-0.011868238913561441,0.030019663134302467,0.035604716740684328,9.6840668749999992,-0.67829329166666663,-2.3862848333333333
1403637132438319104,-0.013962634015954637,0.036302848441482058,0.044680428851054839,9.471589458333332,-0.63743225000000003,-2.4271458749999999
1403637132443319040,-0.016057029118347832,0.035604716740684328,0.046076692252650306,9.4552450416666662,-0.67829329166666663,-2.4598347083333332
1403637132448318976,-0.0153588974175501,0.034208453339088861,0.055850536063818547,9.3081452916666674,-0.80087641666666665,-2.4925235416666665
1403637132453318912,-0.011868238913561441,0.023038346126325153,0.060039326268604934,9.2754564583333323,-0.78453200000000001,-2.4761791249999998
1403637132458319104,-0.0090757121103705145,0.019547687622336492,0.064926248174189058,9.2100787916666658,-0.77635979166666658,-2.4353180833333332
1403637132463319040,0.0020943951023931952,0.0062831853071795866,0.070511301780570912,9.3163174999999985,-0.80087641666666665,-2.4598347083333332
1403637132468318976,0.0055850536063818549,0.0076794487087750501,0.07609635538695278,9.3816951666666668,-0.72732654166666666,-2.5006957499999998
1403637132473318912,0.0055850536063818549,0.008377580409572781,0.07819075048934597,9.4961060833333324,-0.65377666666666667,-2.5333845833333335
1403637132478319104,0.0034906585039886592,0.016755160819145562,0.08168140899333462,9.4307284166666658,-0.7028099166666667,-2.4925235416666665
1403637132483319040,0.0,0.011868238913561441,0.087964594300514204,9.5451393333333332,-0.68646550000000006,-2.4598347083333332
1403637132488318976,-0.0034906585039886592,0.022340214425527419,0.093549647906896058,9.4879338749999995,-0.79270420833333322,-2.4271458749999999
1403637132493318912,0.0027925268031909274,0.019547687622336492,0.099832833214075656,9.4634172499999991,-0.75184316666666662,-2.3209071666666663
1403637132498319104,0.008377580409572781,0.020245819323134219,0.10122909661567112,9.4307284166666658,-0.66194887499999999,-2.3045627499999997
1403637132503319040,0.013264502315156905,0.0153588974175501,0.10402162341886204,9.5287949166666657,-0.60474341666666664,-2.3290793749999996
1403637132508318976,0.013264502315156905,0.016057029118347832,0.090757121103705138,9.5533115416666661,-0.4903325,-2.4271458749999999
1403637132513318912,0.0034906585039886592,0.017453292519943295,0.07958701389094143,9.5451393333333332,-0.46581587499999999,-2.4516624999999999
1403637132518319104,-0.0034906585039886592,0.018151424220741029,0.068416906678177722,9.4470728333333334,-0.41678262500000002,-2.378112625
1403637132523319040,-0.0069813170079773184,0.012566370614359173,0.062133721370998138,9.4062117916666654,-0.4494714583333333,-2.3862848333333333
1403637132528318976,-0.008377580409572781,0.017453292519943295,0.057944931166211737,9.5287949166666657,-0.47398808333333331,-2.4189736666666666
1403637132533318912,-0.0069813170079773184,0.016057029118347832,0.061435589670200401,9.5287949166666657,-0.48216029166666663,-2.4516624999999999
1403637132538319104,-0.0090757121103705145,0.021642082724729686,0.050963614158234416,9.4879338749999995,-0.41678262500000002,-2.4434902916666665
1403637132543319040,-0.013264502315156905,0.018151424220741029,0.048171087355043489,9.4879338749999995,-0.43312704166666666,-2.4598347083333332
1403637132548318976,-0.017453292519943295,0.021642082724729686,0.037699111843077518,9.5206227083333328,-0.49850470833333332,-2.4598347083333332
1403637132553318912,-0.0153588974175501,0.02583087292951608,0.030019663134302467,9.5369671250000003,-0.50667691666666659,-2.5088679583333335
1403637132558319104,-0.022340214425527419,0.025132741228718346,0.02583087292951608,9.471589458333332,-0.57205458333333326,-2.5252123749999997
1403637132563319040,-0.018849555921538759,0.025132741228718346,0.024434609527920613,9.4062117916666654,-0.75184316666666662,-2.557901208333333
1403637132568318976,-0.019547687622336492,0.02722713633111154,0.034208453339088861,9.3490063333333335,-0.79270420833333322,-2.5333845833333335
1403637132573318912,-0.01117010721276371,0.023038346126325153,0.048869219055841226,9.2999730833333327,-0.85808187499999988,-2.5252123749999997
1403637132578319104,-0.010471975511965976,0.021642082724729686,0.055850536063818547,9.3571785416666664,-0.73549874999999998,-2.5088679583333335
1403637132583319040,-0.0076794487087750501,0.014660765716752367,0.066322511575784518,9.332661916666666,-0.76818758333333337,-2.5088679583333335
1403637132588318976,-0.008377580409572781,0.013264502315156905,0.073303828583761846,9.4143839999999983,-0.76818758333333337,-2.5170401666666664
1403637132593318912,-0.0090757121103705145,0.0097738438111682462,0.07609635538695278,9.4634172499999991,-0.75184316666666662,-2.3944570416666666
1403637132598319104,-0.0069813170079773184,0.0097738438111682462,0.080983277292536876,9.471589458333332,-0.73549874999999998,-2.3454237916666667
1403637132603319040,-0.0055850536063818549,0.0090757121103705145,0.08237954069413235,9.4552450416666662,-0.73549874999999998,-2.3209071666666663
1403637132608318976,-0.0062831853071795866,0.0097738438111682462,0.076794487087750496,9.594172583333334,-0.71098212499999991,-2.3944570416666666
1403637132613318912,0.0013962634015954637,0.011868238913561441,0.08237954069413235,9.5778281666666665,-0.7028099166666667,-2.4189736666666666
1403637132618319104,0.0020943951023931952,0.02652900463031381,0.086568330898918744,9.6350336250000002,-0.68646550000000006,-2.4761791249999998
1403637132623319040,0.0041887902047863905,0.0307177948351002,0.092851516206098328,9.471589458333332,-0.6701210833333332,-2.4680069166666665
1403637132628318976,0.0062831853071795866,0.035604716740684328,0.094247779607693802,9.4470728333333334,-0.62108783333333339,-2.4353180833333332
1403637132633318912,0.0069813170079773184,0.031415926535897934,0.096342174710086978,9.4062117916666654,-0.71098212499999991,-2.5006957499999998
1403637132638319104,0.0034906585039886592,0.033510321638291124,0.090757121103705138,9.4143839999999983,-0.71915433333333334,-2.4843513333333336
1403637132643319040,0.0048869219055841231,0.02652900463031381,0.095644043009289262,9.2999730833333327,-0.68646550000000006,-2.4516624999999999
1403637132648318976,0.0041887902047863905,0.020943951023931952,0.10053096491487339,9.3898673749999997,-0.69463770833333327,-2.4843513333333336
1403637132653318912,0.00069813170079773186,0.0153588974175501,0.11170107212763709,9.3571785416666664,-0.71915433333333334,-2.4516624999999999
1403637132658319104,0.0,0.013264502315156905,0.11519173063162574,9.4879338749999995,-0.7436709583333333,-2.4761791249999998
1403637132663319040,0.0048869219055841231,0.014660765716752367,0.12356931104119852,9.4470728333333334,-0.76001537499999994,-2.4189736666666666
1403637132668318976,0.0097738438111682462,0.016057029118347832,0.12985249634837812,9.5778281666666665,-0.71098212499999991,-2.4516624999999999
1403637132673318912,0.012566370614359173,0.024434609527920613,0.12985249634837812,9.4879338749999995,-0.62108783333333339,-2.4108014583333333
1403637132678319104,0.01117010721276371,0.028623399732707,0.11728612573401893,9.5533115416666661,-0.47398808333333331,-2.5006957499999998
1403637132683319040,0.0055850536063818549,0.0307177948351002,0.10681415022205297,9.4143839999999983,-0.43312704166666666,-2.5170401666666664
1403637132688318976,0.0,0.032812189937493394,0.092851516206098328,9.5206227083333328,-0.32688833333333334,-2.5415567916666664
1403637132693318912,-0.0020943951023931952,0.0307177948351002,0.085172067497323284,9.4062117916666654,-0.41678262500000002,-2.557901208333333
1403637132698319104,-0.0034906585039886592,0.024434609527920613,0.07609635538695278,9.4389006250000005,-0.50667691666666659,-2.5333845833333335
1403637132703319040,0.0020943951023931952,0.023038346126325153,0.070511301780570912,9.3163174999999985,-0.59657120833333332,-2.4680069166666665
1403637132708318976,0.0055850536063818549,0.016057029118347832,0.058643062867009467,9.4552450416666662,-0.62108783333333339,-2.5170401666666664
1403637132713318912,0.0027925268031909274,0.014660765716752367,0.060737457969402671,9.4634172499999991,-0.68646550000000006,-2.5415567916666664
1403637132718319104,0.0020943951023931952,0.016057029118347832,0.062831853071795868,9.4961060833333324,-0.69463770833333327,-2.5088679583333335
1403637132723319040,0.0034906585039886592,0.012566370614359173,0.07958701389094143,9.4062117916666654,-0.79270420833333322,-2.3944570416666666
1403637132728318976,0.00069813170079773186,0.017453292519943295,0.092153384505300612,9.4879338749999995,-0.80904862499999997,-2.3944570416666666
1403637132733318912,0.0027925268031909274,0.016755160819145562,0.11239920382843484,9.4470728333333334,-0.8253930416666666,-2.2963905416666663
1403637132738319104,0.0048869219055841231,0.018849555921538759,0.12147491593880534,9.5533115416666661,-0.79270420833333322,-2.3127349583333334
1403637132743319040,0.0034906585039886592,0.022340214425527419,0.1228711793404008,9.471589458333332,-0.71098212499999991,-2.288218333333333
1403637132748318976,0.0027925268031909274,0.018849555921538759,0.11379546723003027,9.6023447916666651,-0.53119354166666666,-2.3045627499999997
1403637132753318912,0.0090757121103705145,0.023038346126325153,0.10471975511965977,9.5451393333333332,-0.4903325,-2.3290793749999996
1403637132758319104,0.0013962634015954637,0.021642082724729686,0.090757121103705138,9.6513780416666659,-0.35957716666666667,-2.3699404166666667
1403637132763319040,-0.00069813170079773186,0.023038346126325153,0.076794487087750496,9.5451393333333332,-0.30237170833333332,-2.4108014583333333
1403637132768318976,-0.0041887902047863905,0.02652900463031381,0.060737457969402671,9.643205833333333,-0.31871612500000002,-2.4925235416666665
1403637132773318912,-0.0090757121103705145,0.032812189937493394,0.046774823953448029,9.4961060833333324,-0.42495483333333334,-2.5006957499999998
1403637132778319104,-0.013264502315156905,0.032812189937493394,0.042586033748661642,9.4307284166666658,-0.46581587499999999,-2.5006957499999998
1403637132783319040,-0.010471975511965976,0.031415926535897934,0.043284165449459372,9.2672842499999994,-0.58022679166666657,-2.4843513333333336
1403637132788318976,-0.01117010721276371,0.025132741228718346,0.043284165449459372,9.3490063333333335,-0.62108783333333339,-2.5660734166666663
1403637132793318912,-0.0090757121103705145,0.023038346126325153,0.041887902047863905,9.332661916666666,-0.76818758333333337,-2.5660734166666663
1403637132798319104,-0.0090757121103705145,0.019547687622336492,0.041189770347066175,9.4307284166666658,-0.85808187499999988,-2.5905900416666663
1403637132803319040,-0.008377580409572781,0.018151424220741029,0.046076692252650306,9.3571785416666664,-1.0051816249999999,-2.5170401666666664
1403637132808318976,0.0041887902047863905,0.010471975511965976,0.061435589670200401,9.5206227083333328,-1.0215260416666667,-2.4680069166666665
1403637132813318912,0.016755160819145562,0.01117010721276371,0.08237954069413235,9.3816951666666668,-0.90711512499999991,-2.4353180833333332
1403637132818319104,0.016057029118347832,0.01117010721276371,0.097738438111682452,9.4470728333333334,-0.65377666666666667,-2.4843513333333336
1403637132823319040,0.0048869219055841231,0.020245819323134219,0.1096066770252439,9.4634172499999991,-0.4903325,-2.4761791249999998
1403637132828318976,-0.0048869219055841231,0.028623399732707,0.11030480872604163,9.5860003749999994,-0.4903325,-2.582417833333333
1403637132833318912,-0.008377580409572781,0.034208453339088861,0.11030480872604163,9.4389006250000005,-0.50667691666666659,-2.5170401666666664
1403637132838319104,-0.0076794487087750501,0.032812189937493394,0.10332349171806432,9.422556208333333,-0.57205458333333326,-2.378112625
1403637132843319040,-0.0020943951023931952,0.032812189937493394,0.10192722831646883,9.3571785416666664,-0.59657120833333332,-2.3944570416666666
1403637132848318976,0.00069813170079773186,0.021642082724729686,0.097040306410884708,9.4307284166666658,-0.55571016666666662,-2.4434902916666665
1403637132853318912,-0.0041887902047863905,0.025132741228718346,0.087266462599716474,9.471589458333332,-0.4903325,-2.4108014583333333
1403637132858319104,-0.0062831853071795866,0.020245819323134219,0.08377580409572781,9.5533115416666661,-0.46581587499999999,-2.4516624999999999
1403637132863319040,-0.018151424220741029,0.02722713633111154,0.088662726001311934,9.5042782916666653,-0.53119354166666666,-2.4026292499999999
1403637132868318976,-0.019547687622336492,0.027925268031909273,0.096342174710086978,9.6105169999999998,-0.58839899999999989,-2.4189736666666666
1403637132873318912,-0.019547687622336492,0.035604716740684328,0.10262536001726656,9.5778281666666665,-0.7028099166666667,-2.4189736666666666
1403637132878319104,-0.013264502315156905,0.038397243543875248,0.10471975511965977,9.5696559583333336,-0.73549874999999998,-2.4271458749999999
1403637132883319040,-0.0090757121103705145,0.043982297150257102,0.10471975511965977,9.4552450416666662,-0.7436709583333333,-2.4761791249999998
1403637132888318976,-0.0041887902047863905,0.043284165449459372,0.096342174710086978,9.4552450416666662,-0.6292600416666666,-2.4598347083333332
1403637132893318912,-0.0062831853071795866,0.041189770347066175,0.087964594300514204,9.4307284166666658,-0.51484912499999991,-2.4516624999999999
1403637132898319104,-0.0055850536063818549,0.034906585039886591,0.078888882190143686,9.3571785416666664,-0.48216029166666663,-2.4271458749999999
1403637132903319040,-0.0097738438111682462,0.027925268031909273,0.063529984772593598,9.3980395833333326,-0.47398808333333331,-2.4271458749999999
1403637132908318976,-0.016755160819145562,0.02583087292951608,0.050963614158234416,9.4143839999999983,-0.43312704166666666,-2.3944570416666666
1403637132913318912,-0.019547687622336492,0.013264502315156905,0.034906585039886591,9.3653507499999993,-0.4903325,-2.3944570416666666
1403637132918319104,-0.020943951023931952,0.0069813170079773184,0.032114058236695664,9.5533115416666661,-0.61291562499999996,-2.4026292499999999
1403637132923319040,-0.020943951023931952,0.0153588974175501,0.030019663134302467,9.5369671250000003,-0.72732654166666666,-2.3699404166666667
1403637132928318976,-0.018151424220741029,0.019547687622336492,0.037000980142279788,9.5124504999999999,-0.91528733333333334,-2.3535959999999996
1403637132933318912,-0.018849555921538759,0.028623399732707,0.047472955654245766,9.4879338749999995,-1.0460426666666667,-2.3699404166666667
1403637132938319104,-0.0062831853071795866,0.024434609527920613,0.064926248174189058,9.3490063333333335,-1.1277647500000001,-2.3944570416666666
1403637132943319040,-0.0020943951023931952,0.02722713633111154,0.085172067497323284,9.2672842499999994,-1.0869037083333333,-2.4108014583333333
1403637132948318976,-0.0027925268031909274,0.020943951023931952,0.10890854532444616,9.2345954166666662,-1.0787315,-2.4925235416666665
1403637132953318912,-0.0034906585039886592,0.022340214425527419,0.12845623294678266,9.3735229583333322,-0.96432058333333326,-2.5415567916666664
1403637132958319104,-0.0048869219055841231,0.022340214425527419,0.14521139376592823,9.3571785416666664,-0.93163174999999998,-2.5905900416666663
1403637132963319040,-0.0020943951023931952,0.020943951023931952,0.1647590813882647,9.3816951666666668,-0.91528733333333334,-2.5660734166666663
1403637132968318976,-0.0013962634015954637,0.0069813170079773184,0.17523105690023066,9.3081452916666674,-0.90711512499999991,-2.4108014583333333
1403637132973318912,0.0069813170079773184,-0.0013962634015954637,0.17383479349863523,9.3571785416666664,-0.83356525000000004,-2.3454237916666667
1403637132978319104,0.01117010721276371,-0.0097738438111682462,0.17034413499464657,9.4062117916666654,-0.58839899999999989,-2.3617682083333333
1403637132983319040,0.0097738438111682462,-0.013962634015954637,0.15638150097869194,9.5451393333333332,-0.392266,-2.3290793749999996
1403637132988318976,0.0034906585039886592,-0.023038346126325153,0.1361356816555577,9.5614837499999989,-0.25333845833333329,-2.3045627499999997
1403637132993318912,-0.0055850536063818549,-0.019547687622336492,0.11239920382843484,9.6677224583333334,-0.24516625,-2.3699404166666667
1403637132998319104,-0.01117010721276371,-0.017453292519943295,0.099832833214075656,9.6023447916666651,-0.31871612500000002,-2.288218333333333
1403637133003319040,-0.016755160819145562,-0.0055850536063818549,0.085172067497323284,9.5614837499999989,-0.40043820833333332,-2.3045627499999997
1403637133008318976,-0.012566370614359173,-0.0062831853071795866,0.087266462599716474,9.332661916666666,-0.56388237500000005,-2.2800461250000001
1403637133013318912,-0.0069813170079773184,-0.0027925268031909274,0.084473935796525554,9.3898673749999997,-0.64560445833333324,-2.3535959999999996
1403637133018319104,-0.0041887902047863905,0.0062831853071795866,0.085870199198121014,9.4143839999999983,-0.62108783333333339,-2.4598347083333332
1403637133023319040,-0.0062831853071795866,0.022340214425527419,0.08168140899333462,9.5778281666666665,-0.52302133333333334,-2.6396232916666666
1403637133028318976,-0.01117010721276371,0.031415926535897934,0.078888882190143686,9.4961060833333324,-0.53936574999999998,-2.7213453750000003
1403637133033318912,-0.019547687622336492,0.041189770347066175,0.074700091985357306,9.4307284166666658,-0.53936574999999998,-2.7458620000000002
1403637133038319104,-0.020245819323134219,0.037699111843077518,0.069813170079773182,9.2182509999999986,-0.61291562499999996,-2.6968287499999999
1403637133043319040,-0.020245819323134219,0.029321531433504733,0.064926248174189058,9.1201845000000006,-0.71915433333333334,-2.6968287499999999
1403637133048318976,-0.0153588974175501,0.013962634015954637,0.066322511575784518,9.1528733333333321,-0.81722083333333329,-2.7622064166666664
1403637133053318912,-0.00069813170079773186,0.0027925268031909274,0.062831853071795868,9.5287949166666657,-0.80904862499999997,-2.8929617499999996
1403637133058319104,0.012566370614359173,0.0062831853071795866,0.056548667764616284,9.6922390833333321,-0.75184316666666662,-2.9011339583333333
1403637133063319040,0.018849555921538759,0.016057029118347832,0.041887902047863905,9.9782663750000005,-0.57205458333333326,-2.9992004583333332
1403637133068318976,0.021642082724729686,0.039793506945470715,0.032114058236695664,10.141710541666667,-0.49850470833333332,-3.1054391666666663
1403637133073318912,0.012566370614359173,0.067020643276582248,0.023038346126325153,10.149882749999998,-0.392266,-3.1871612499999999
1403637133078319104,0.0,0.099134701513277898,0.0307177948351002,9.8801998750000006,-0.55571016666666662,-3.1217835833333334
1403637133083319040,0.0013962634015954637,0.11239920382843484,0.042586033748661642,9.6840668749999992,-0.80904862499999997,-3.0809225416666663
1403637133088318976,0.0153588974175501,0.114493598930828,0.069115038378975438,9.3081452916666674,-1.1359369583333332,-2.9174783749999995
1403637133093318912,0.040491638646268438,0.10332349171806432,0.097040306410884708,9.2591120416666666,-1.299381125,-2.7785508333333331
1403637133098319104,0.069813170079773182,0.087266462599716474,0.11588986233242347,9.0874956666666655,-1.1931424166666666,-2.7050009583333332
1403637133103319040,0.087266462599716474,0.070511301780570912,0.1340412865531645,9.2509398333333337,-0.87442629166666663,-2.6804843333333328
1403637133108318976,0.093549647906896058,0.064228116473391328,0.14521139376592823,9.332661916666666,-0.67829329166666663,-2.6151066666666667
1403637133113318912,0.090058989402907408,0.060737457969402671,0.14521139376592823,9.5124504999999999,-0.63743225000000003,-2.5252123749999997
1403637133118319104,0.089360857702109678,0.057944931166211737,0.15358897417550099,9.4797616666666666,-0.49850470833333332,-2.4189736666666666
1403637133123319040,0.08307767239493008,0.064228116473391328,0.15987215948268058,9.6513780416666659,-0.41678262500000002,-2.3699404166666667
1403637133128318976,0.064228116473391328,0.064926248174189058,0.15707963267948966,9.4634172499999991,-0.35957716666666667,-2.3617682083333333
1403637133133318912,0.050963614158234416,0.061435589670200401,0.14660765716752369,9.6513780416666659,-0.26968287499999999,-2.3454237916666667
1403637133138319104,0.033510321638291124,0.05445427266222308,0.12496557444279401,9.5206227083333328,-0.41678262500000002,-2.2718739166666664
1403637133143319040,0.017453292519943295,0.031415926535897934,0.097040306410884708,9.6105169999999998,-0.40861041666666664,-2.288218333333333
1403637133148318976,0.0034906585039886592,0.024434609527920613,0.078888882190143686,9.7494445416666657,-0.38409379166666668,-2.2800461250000001
1403637133153318912,-0.0062831853071795866,0.017453292519943295,0.060039326268604934,9.8638554583333331,-0.41678262500000002,-2.2064962499999998
1403637133158319104,-0.018151424220741029,0.010471975511965976,0.046774823953448029,9.831166624999998,-0.36774937499999999,-2.0675687083333334
1403637133163319040,-0.027925268031909273,0.018849555921538759,0.037000980142279788,10.035471833333334,-0.30237170833333332,-2.1574629999999999
1403637133168318976,-0.039095375244672985,0.028623399732707,0.023038346126325153,9.8556832499999985,-0.41678262500000002,-2.132946375
1403637133173318912,-0.045378560551852569,0.033510321638291124,0.0097738438111682462,9.8393388333333327,-0.31871612500000002,-2.1247741666666666
1403637133178319104,-0.05166174585903216,0.046774823953448029,-0.0013962634015954637,9.4961060833333324,-0.31871612500000002,-2.0348798749999997
1403637133183319040,-0.060737457969402671,0.039095375244672985,-0.024434609527920613,9.4634172499999991,-0.34323275000000003,-2.10842975
1403637133188318976,-0.08307767239493008,0.032114058236695664,-0.0307177948351002,9.1610455416666667,-0.40861041666666664,-1.9531577916666665
1403637133193318912,-0.090058989402907408,0.018849555921538759,-0.043284165449459372,9.1528733333333321,-0.47398808333333331,-2.0021910416666664
1403637133198319104,-0.10122909661567112,0.0153588974175501,-0.05166174585903216,9.1447011249999992,-0.61291562499999996,-2.0593964999999996
1403637133203319040,-0.10681415022205297,0.01117010721276371,-0.058643062867009467,9.332661916666666,-0.61291562499999996,-2.1656352083333332
1403637133208318976,-0.11519173063162574,0.020943951023931952,-0.062133721370998138,9.3163174999999985,-0.71915433333333334,-2.2637017083333331
1403637133213318912,-0.11379546723003027,0.020245819323134219,-0.061435589670200401,9.5124504999999999,-0.9398039583333333,-2.4680069166666665
1403637133218319104,-0.11100294042683936,0.030019663134302467,-0.055152404363020817,9.6186892083333326,-1.0460426666666667,-2.6477955
1403637133223319040,-0.099832833214075656,0.029321531433504733,-0.039095375244672985,9.5614837499999989,-1.0378704583333334,-2.7376897916666665
1403637133228318976,-0.088662726001311934,0.018849555921538759,-0.032114058236695664,9.5860003749999994,-0.92345954166666655,-2.852100708333333
1403637133233318912,-0.08237954069413235,0.008377580409572781,-0.02652900463031381,9.7249279166666671,-0.68646550000000006,-2.9011339583333333
1403637133238319104,-0.085172067497323284,-0.0076794487087750501,-0.0307177948351002,9.7494445416666657,-0.5475379583333333,-2.9174783749999995
1403637133243319040,-0.090058989402907408,-0.018151424220741029,-0.043982297150257102,9.9864385833333333,-0.4903325,-2.9174783749999995
1403637133248318976,-0.094247779607693802,-0.016755160819145562,-0.055152404363020817,10.019127416666667,-0.5475379583333333,-2.852100708333333
1403637133253318912,-0.090058989402907408,-0.016755160819145562,-0.055152404363020817,10.068160666666666,-0.58022679166666657,-2.7867230416666664
1403637133258319104,-0.086568330898918744,-0.0048869219055841231,-0.047472955654245766,10.027299624999999,-0.64560445833333324,-2.7213453750000003
1403637133263319040,-0.074700091985357306,-0.00069813170079773186,-0.031415926535897934,9.9128887083333321,-0.68646550000000006,-2.6396232916666666
1403637133268318976,-0.064228116473391328,0.0041887902047863905,-0.0153588974175501,9.7576167499999986,-0.68646550000000006,-2.5742456250000001
1403637133273318912,-0.055850536063818547,-0.0041887902047863905,0.0048869219055841231,9.6023447916666651,-0.7436709583333333,-2.4761791249999998
1403637133278319104,-0.043284165449459372,-0.0062831853071795866,0.019547687622336492,9.6758946666666663,-0.76818758333333337,-2.5170401666666664
1403637133283319040,-0.0307177948351002,-0.0055850536063818549,0.035604716740684328,9.6350336250000002,-0.6292600416666666,-2.4761791249999998
1403637133288318976,-0.028623399732707,-0.01117010721276371,0.043982297150257102,9.733100125,-0.52302133333333334,-2.5742456250000001
1403637133293318912,-0.029321531433504733,-0.019547687622336492,0.050963614158234416,9.8556832499999985,-0.53119354166666666,-2.5905900416666663
1403637133298319104,-0.031415926535897934,-0.021642082724729686,0.044680428851054839,10.076332875,-0.49850470833333332,-2.5905900416666663
1403637133303319040,-0.042586033748661642,-0.021642082724729686,0.041887902047863905,10.158054958333333,-0.5475379583333333,-2.6069344583333329
1403637133308318976,-0.050963614158234416,-0.02583087292951608,0.039793506945470715,10.215260416666666,-0.52302133333333334,-2.6151066666666667
1403637133313318912,-0.057944931166211737,-0.028623399732707,0.038397243543875248,10.362360166666665,-0.47398808333333331,-2.6968287499999999
1403637133318319104,-0.062831853071795868,-0.022340214425527419,0.032114058236695664,10.444082249999999,-0.3350605416666666,-2.7785508333333331
1403637133323319040,-0.07609635538695278,-0.028623399732707,0.032114058236695664,10.386876791666666,-0.32688833333333334,-2.8194118749999997
1403637133328318976,-0.092851516206098328,-0.02652900463031381,0.018849555921538759,10.2969825,-0.30237170833333332,-2.7948952499999997
1403637133333318912,-0.10611601852125524,-0.034208453339088861,0.018151424220741029,10.100849499999999,-0.3350605416666666,-2.6968287499999999
1403637133338319104,-0.11728612573401893,-0.040491638646268438,0.020943951023931952,10.117193916666666,-0.3105439166666667,-2.6804843333333328
1403637133343319040,-0.12356931104119852,-0.048869219055841226,0.027925268031909273,10.092677291666664,-0.40043820833333332,-2.6641399166666666
1403637133348318976,-0.13543754995475996,-0.045378560551852569,0.037699111843077518,10.084505083333333,-0.34323275000000003,-2.6477955
1403637133353318912,-0.14590952546672595,-0.047472955654245766,0.05305800926062762,9.9210609166666668,-0.37592158333333331,-2.5415567916666664
1403637133358319104,-0.15219271077390556,-0.048171087355043489,0.069115038378975438,9.9782663750000005,-0.4494714583333333,-2.5252123749999997
1403637133363319040,-0.15498523757709648,-0.05166174585903216,0.090058989402907408,9.8638554583333331,-0.4494714583333333,-2.5006957499999998
1403637133368318976,-0.15987215948268058,-0.041887902047863905,0.11030480872604163,9.7984777916666665,-0.46581587499999999,-2.5088679583333335
1403637133373318912,-0.1626646862858715,-0.044680428851054839,0.12007865253720987,9.4143839999999983,-0.56388237500000005,-2.4189736666666666
1403637133378319104,-0.16406094968746698,-0.052359877559829883,0.10262536001726656,9.3653507499999993,-0.56388237500000005,-2.557901208333333
1403637133383319040,-0.16336281798666924,-0.060737457969402671,0.096342174710086978,9.3081452916666674,-0.58839899999999989,-2.5905900416666663
1403637133388318976,-0.15777776438028737,-0.069115038378975438,0.090058989402907408,9.3653507499999993,-0.58022679166666657,-2.6723121249999999
1403637133393318912,-0.15289084247470325,-0.075398223686155036,0.084473935796525554,9.1365289166666663,-0.64560445833333324,-2.4843513333333336
1403637133398319104,-0.15149457907310779,-0.092851516206098328,0.080983277292536876,8.9077070833333334,-0.61291562499999996,-2.2555295000000002
1403637133403319040,-0.143116998663535,-0.11030480872604163,0.089360857702109678,8.7360907083333323,-0.71098212499999991,-2.2391850833333331
1403637133408318976,-0.12985249634837812,-0.11100294042683936,0.090058989402907408,9.0466346249999994,-0.78453200000000001,-2.2963905416666663
1403637133413318912,-0.11728612573401893,-0.10890854532444616,0.099134701513277898,9.0629790416666669,-0.78453200000000001,-2.3290793749999996
1403637133418319104,-0.11030480872604163,-0.10192722831646883,0.099832833214075656,9.1528733333333321,-0.72732654166666666,-2.3372515833333334
1403637133423319040,-0.097040306410884708,-0.097040306410884708,0.10611601852125524,8.9485681249999995,-0.87442629166666663,-2.3372515833333334
1403637133428318976,-0.071209433481368656,-0.091455252804502868,0.11588986233242347,8.9158792916666663,-1.0215260416666667,-2.4434902916666665
1403637133433318912,-0.044680428851054839,-0.090757121103705138,0.13194689145077129,8.6380242083333325,-1.1686257916666667,-2.4761791249999998
1403637133438319104,-0.012566370614359173,-0.1054178868204575,0.13962634015954636,8.6625408333333329,-1.1114203333333332,-2.623278875
1403637133443319040,0.0027925268031909274,-0.114493598930828,0.14660765716752369,8.5971631666666664,-0.80087641666666665,-2.6723121249999999
1403637133448318976,0.013962634015954637,-0.12566370614359174,0.15009831567151233,8.7769517500000003,-0.66194887499999999,-2.7213453750000003
1403637133453318912,0.020943951023931952,-0.143116998663535,0.14660765716752369,8.7279184999999995,-0.75184316666666662,-2.6804843333333328
1403637133458319104,0.030019663134302467,-0.15149457907310779,0.12845623294678266,8.9240514999999991,-0.68646550000000006,-2.7131731666666665
1403637133463319040,0.037699111843077518,-0.15428710587629874,0.1228711793404008,8.883190458333333,-0.56388237500000005,-2.6559677083333328
1403637133468318976,0.044680428851054839,-0.15917402778188286,0.11519173063162574,9.1120122916666659,-0.42495483333333334,-2.623278875
1403637133473318912,0.034208453339088861,-0.16126842288427606,0.10332349171806432,8.8913626666666659,-0.13075533333333333,-2.3372515833333334
1403637133478319104,0.013962634015954637,-0.18360863730980345,0.10821041362364843,8.8178127916666664,0.40861041666666664,-2.0348798749999997
1403637133483319040,-0.022340214425527419,-0.19687313962496036,0.11519173063162574,8.883190458333333,0.72732654166666666,-1.7488525833333333
1403637133488318976,-0.060039326268604934,-0.21432643214490363,0.114493598930828,9.1692177499999996,0.77635979166666658,-1.6180972499999999
1403637133493318912,-0.089360857702109678,-0.21362830044410594,0.11519173063162574,9.5533115416666661,0.56388237500000005,-1.6753027083333332
1403637133498319104,-0.1054178868204575,-0.19687313962496036,0.114493598930828,9.8393388333333327,0.14709974999999997,-1.8060580416666667
1403637133503319040,-0.10471975511965977,-0.17034413499464657,0.11868238913561441,9.7085834999999996,-0.22064962499999999,-2.0021910416666664
1403637133508318976,-0.092153384505300612,-0.13892820845874865,0.12077678423800758,9.4797616666666666,-0.32688833333333334,-2.1574629999999999
1403637133513318912,-0.08237954069413235,-0.1291543646475804,0.13543754995475996,8.883190458333333,-0.38409379166666668,-2.1901518333333332
1403637133518319104,-0.080983277292536876,-0.14590952546672595,0.14940018397071461,8.6135075833333321,-0.40043820833333332,-2.4271458749999999
1403637133523319040,-0.078888882190143686,-0.1647590813882647,0.16755160819145562,8.4582356250000004,-0.41678262500000002,-2.5905900416666663
1403637133528318976,-0.075398223686155036,-0.18500490071139891,0.17802358370342161,8.5399577083333327,-0.44129924999999998,-2.7458620000000002
1403637133533318912,-0.07958701389094143,-0.19896753472735357,0.17732545200262387,8.6380242083333325,-0.56388237500000005,-2.803067458333333
1403637133538319104,-0.074001960284559576,-0.20245819323134223,0.17732545200262387,8.9730847499999999,-0.62108783333333339,-2.8766173333333334
1403637133543319040,-0.069115038378975438,-0.19477874452256716,0.17872171540421936,9.1365289166666663,-0.61291562499999996,-2.827584083333333
1403637133548318976,-0.069813170079773182,-0.18779742751458986,0.17802358370342161,9.3816951666666668,-0.50667691666666659,-2.852100708333333
1403637133553318912,-0.071209433481368656,-0.1668534764906579,0.17732545200262387,9.6023447916666651,-0.3105439166666667,-2.9011339583333333
1403637133558319104,-0.073303828583761846,-0.15707963267948966,0.17383479349863523,9.7494445416666657,-0.26968287499999999,-2.9746838333333332
1403637133563319040,-0.080285145591739146,-0.14730578886832138,0.1668534764906579,9.7984777916666665,-0.25333845833333329,-2.9746838333333332
1403637133568318976,-0.086568330898918744,-0.15219271077390556,0.15219271077390556,9.8801998750000006,-0.20430520833333332,-2.9992004583333332
1403637133573318912,-0.097738438111682452,-0.15079644737231007,0.1340412865531645,9.9047164999999993,-0.098066500000000001,-3.0645781249999997
1403637133578319104,-0.10262536001726656,-0.15428710587629874,0.11519173063162574,9.9864385833333333,-0.098066500000000001,-3.0564059166666664
1403637133583319040,-0.114493598930828,-0.14940018397071461,0.097738438111682452,10.076332875,-0.196133,-3.162644625
1403637133588318976,-0.11868238913561441,-0.13892820845874865,0.092153384505300612,10.084505083333333,-0.27785508333333331,-3.1871612499999999
1403637133593318912,-0.12077678423800758,-0.12496557444279401,0.090058989402907408,9.9864385833333333,-0.42495483333333334,-3.1789890416666662
1403637133598319104,-0.11728612573401893,-0.11798425743481668,0.10192722831646883,9.831166624999998,-0.53119354166666666,-3.1708168333333329
1403637133603319040,-0.1165879940332212,-0.10402162341886204,0.10471975511965977,9.822994416666667,-0.58839899999999989,-3.1871612499999999
1403637133608318976,-0.11239920382843484,-0.10262536001726656,0.11309733552923257,9.594172583333334,-0.52302133333333334,-3.2035056666666666
1403637133613318912,-0.1075122819228507,-0.094945911308491532,0.114493598930828,9.5533115416666661,-0.59657120833333332,-3.2525389166666665
1403637133618319104,-0.1054178868204575,-0.097738438111682452,0.11588986233242347,9.4961060833333324,-0.62108783333333339,-3.2525389166666665
1403637133623319040,-0.098436569812480182,-0.090058989402907408,0.11379546723003027,9.5369671250000003,-0.53119354166666666,-3.2607111249999998
1403637133628318976,-0.095644043009289262,-0.093549647906896058,0.11938052083641214,9.643205833333333,-0.53119354166666666,-3.2852277500000002
1403637133633318912,-0.099134701513277898,-0.090058989402907408,0.11379546723003027,9.872027666666666,-0.45764366666666667,-3.2933999583333331
1403637133638319104,-0.096342174710086978,-0.090058989402907408,0.10611601852125524,10.092677291666664,-0.43312704166666666,-3.3179165833333331
1403637133643319040,-0.10262536001726656,-0.07609635538695278,0.087964594300514204,10.386876791666666,-0.392266,-3.4159830833333329
1403637133648318976,-0.10471975511965977,-0.069115038378975438,0.074700091985357306,10.533976541666666,-0.40861041666666664,-3.4241552916666667
1403637133653318912,-0.1096066770252439,-0.063529984772593598,0.048869219055841226,10.762798374999999,-0.36774937499999999,-3.5549106249999998
1403637133658319104,-0.11588986233242347,-0.049567350756638949,0.034906585039886591,10.730109541666666,-0.41678262500000002,-3.5630828333333331
1403637133663319040,-0.11938052083641214,-0.041887902047863905,0.013264502315156905,10.730109541666666,-0.53936574999999998,-3.5957716666666664
1403637133668318976,-0.12217304763960307,-0.035604716740684328,-0.0013962634015954637,10.591182,-0.57205458333333326,-3.5222217916666665
1403637133673318912,-0.12217304763960307,-0.027925268031909273,-0.012566370614359173,10.533976541666666,-0.58022679166666657,-3.5303939999999998
1403637133678319104,-0.12077678423800758,-0.0307177948351002,-0.01117010721276371,10.395049,-0.59657120833333332,-3.5140495833333332
1403637133683319040,-0.11868238913561441,-0.024434609527920613,-0.0097738438111682462,10.444082249999999,-0.64560445833333324,-3.5712550416666669
1403637133688318976,-0.11519173063162574,-0.018151424220741029,0.0069813170079773184,10.370532375,-0.72732654166666666,-3.5303939999999998
1403637133693318912,-0.11100294042683936,-0.01117010721276371,0.018849555921538759,10.386876791666666,-0.72732654166666666,-3.5467384166666669
1403637133698319104,-0.10402162341886204,-0.0076794487087750501,0.034208453339088861,10.272465875,-0.81722083333333329,-3.5140495833333332
1403637133703319040,-0.091455252804502868,0.0,0.05305800926062762,10.395049,-0.77635979166666658,-3.5222217916666665
1403637133708318976,-0.084473935796525554,0.0055850536063818549,0.075398223686155036,10.264293666666665,-0.71915433333333334,-3.5303939999999998
1403637133713318912,-0.085172067497323284,0.0041887902047863905,0.076794487087750496,10.476771083333333,-0.57205458333333326,-3.5222217916666665
1403637133718319104,-0.090058989402907408,0.0027925268031909274,0.08377580409572781,10.4931155,-0.60474341666666664,-3.4813607499999994
1403637133723319040,-0.092153384505300612,0.00069813170079773186,0.080285145591739146,10.632043041666666,-0.64560445833333324,-3.5794272499999997
1403637133728318976,-0.092851516206098328,0.0020943951023931952,0.076794487087750496,10.648387458333334,-0.73549874999999998,-3.6284604999999996
1403637133733318912,-0.090757121103705138,0.012566370614359173,0.071209433481368656,10.779142791666665,-0.7028099166666667,-3.6611493333333334
1403637133738319104,-0.090757121103705138,0.017453292519943295,0.071209433481368656,10.713765125,-0.71098212499999991,-3.6366327083333334
1403637133743319040,-0.094945911308491532,0.027925268031909273,0.061435589670200401,10.730109541666666,-0.6701210833333332,-3.6121160833333334
1403637133748318976,-0.099134701513277898,0.02722713633111154,0.065624379874986788,10.558493166666667,-0.79270420833333322,-3.4895329583333332
1403637133753318912,-0.10402162341886204,0.0307177948351002,0.067020643276582248,10.623870833333331,-0.8253930416666666,-3.4486719166666666
1403637133758319104,-0.10890854532444616,0.031415926535897934,0.072605696882964116,10.476771083333333,-0.89077070833333327,-3.3260887916666664
1403637133763319040,-0.11170107212763709,0.029321531433504733,0.070511301780570912,10.566665374999998,-0.80904862499999997,-3.1789890416666662
1403637133768318976,-0.12077678423800758,0.036302848441482058,0.08377580409572781,10.378704583333333,-0.73549874999999998,-2.9992004583333332
1403637133773318912,-0.1270599695451872,0.027925268031909273,0.092153384505300612,10.435910041666666,-0.61291562499999996,-2.9011339583333333
1403637133778319104,-0.13823007675795088,0.022340214425527419,0.099134701513277898,10.460426666666667,-0.53936574999999998,-2.8847895416666667
1403637133783319040,-0.15149457907310779,0.018151424220741029,0.098436569812480182,10.795487208333332,-0.392266,-2.8847895416666667
1403637133788318976,-0.16964600329384885,0.012566370614359173,0.092851516206098328,10.877209291666667,-0.392266,-2.8929617499999996
1403637133793318912,-0.18989182261698306,0.0027925268031909274,0.078888882190143686,11.073342291666666,-0.34323275000000003,-2.9338227916666666
1403637133798319104,-0.20455258833373544,-0.0069813170079773184,0.067020643276582248,11.073342291666666,-0.41678262500000002,-2.8929617499999996
1403637133803319040,-0.21362830044410594,-0.023736477827122883,0.068416906678177722,11.277647499999999,-0.49850470833333332,-2.9583394166666666
1403637133808318976,-0.21642082724729686,-0.0307177948351002,0.075398223686155036,11.302164125000001,-0.65377666666666667,-3.0237170833333331
1403637133813318912,-0.21642082724729686,-0.039095375244672985,0.093549647906896058,11.490124916666666,-0.71915433333333334,-3.2280222916666665
1403637133818319104,-0.21572269554649914,-0.036302848441482058,0.11309733552923257,11.408402833333332,-0.76818758333333337,-3.2770555416666665
1403637133823319040,-0.21013764194011728,-0.039793506945470715,0.12566370614359174,11.359369583333333,-0.77635979166666658,-3.3914664583333329
1403637133828318976,-0.21293016874330817,-0.042586033748661642,0.1340412865531645,11.171408791666666,-0.7436709583333333,-3.4078108749999996
1403637133833318912,-0.21013764194011728,-0.050963614158234416,0.13264502315156904,11.146892166666666,-0.66194887499999999,-3.4650163333333333
1403637133838319104,-0.21293016874330817,-0.062133721370998138,0.1291543646475804,10.950759166666666,-0.66194887499999999,-3.4078108749999996
1403637133843319040,-0.2199114857512855,-0.07819075048934597,0.11588986233242347,10.983448000000001,-0.62108783333333339,-3.4404997083333333
1403637133848318976,-0.2241002759560719,-0.087964594300514204,0.10611601852125524,10.926242541666667,-0.61291562499999996,-3.366949833333333
1403637133853318912,-0.228987197861656,-0.098436569812480182,0.1054178868204575,11.073342291666666,-0.63743225000000003,-3.4241552916666667
1403637133858319104,-0.23108159296404923,-0.10192722831646883,0.099832833214075656,11.204097624999999,-0.69463770833333327,-3.4241552916666667
1403637133863319040,-0.22619467105846514,-0.10332349171806432,0.10402162341886204,11.334852958333332,-0.78453200000000001,-3.3751220416666667
1403637133868318976,-0.22200588085367873,-0.10053096491487339,0.11519173063162574,11.367541791666666,-0.89077070833333327,-3.4486719166666666
1403637133873318912,-0.20734511513692636,-0.097040306410884708,0.13683381335635544,11.441091666666667,-0.98066500000000001,-3.4650163333333333
1403637133878319104,-0.18989182261698306,-0.097040306410884708,0.16545721308906244,11.392058416666666,-1.054214875,-3.5630828333333331
1403637133883319040,-0.17383479349863523,-0.094945911308491532,0.18151424220741028,11.498297125000001,-1.0787315,-3.6693215416666662
1403637133888318976,-0.15498523757709648,-0.085870199198121014,0.19128808601857852,11.375713999999999,-0.99700941666666665,-3.7265269999999999
1403637133893318912,-0.13823007675795088,-0.090058989402907408,0.19268434942017396,11.310336333333332,-0.87442629166666663,-3.7592158333333332
1403637133898319104,-0.13892820845874865,-0.08377580409572781,0.1884955592153876,11.22861425,-0.75184316666666662,-3.7673880416666665
1403637133903319040,-0.14381513036433274,-0.090058989402907408,0.18011797880581482,11.13054775,-0.72732654166666666,-3.7673880416666665
1403637133908318976,-0.14730578886832138,-0.093549647906896058,0.16126842288427606,11.024309041666667,-0.69463770833333327,-3.6611493333333334
1403637133913318912,-0.14730578886832138,-0.10053096491487339,0.143116998663535,10.950759166666666,-0.72732654166666666,-3.6202882916666663
1403637133918319104,-0.14730578886832138,-0.096342174710086978,0.13473941825396224,10.983448000000001,-0.72732654166666666,-3.5630828333333331
1403637133923319040,-0.14102260356114182,-0.093549647906896058,0.1340412865531645,10.909898125,-0.83356525000000004,-3.5303939999999998
1403637133928318976,-0.1340412865531645,-0.08377580409572781,0.12845623294678266,10.967103583333333,-0.79270420833333322,-3.5303939999999998
1403637133933318912,-0.12636183784438945,-0.072605696882964116,0.12426744274199628,10.820003833333333,-0.77635979166666658,-3.5140495833333332
1403637133938319104,-0.12775810124598494,-0.060737457969402671,0.12217304763960307,10.705592916666665,-0.71098212499999991,-3.5794272499999997
1403637133943319040,-0.1291543646475804,-0.055152404363020817,0.11938052083641214,10.664731874999999,-0.7028099166666667,-3.6284604999999996
1403637133948318976,-0.1361356816555577,-0.045378560551852569,0.10681415022205297,10.607526416666667,-0.71915433333333334,-3.6938381666666662
1403637133953318912,-0.14660765716752369,-0.046076692252650306,0.096342174710086978,10.484943291666665,-0.66194887499999999,-3.6938381666666662
1403637133958319104,-0.1556833692778942,-0.039793506945470715,0.08237954069413235,10.4931155,-0.59657120833333332,-3.7592158333333332
1403637133963319040,-0.16615534478986016,-0.039095375244672985,0.069115038378975438,10.419565624999999,-0.62108783333333339,-3.7346992083333332
1403637133968318976,-0.17453292519943295,-0.032114058236695664,0.055850536063818547,10.435910041666666,-0.61291562499999996,-3.7183547916666662
1403637133973318912,-0.1864011641129944,-0.021642082724729686,0.048869219055841226,10.231604833333332,-0.65377666666666667,-3.6938381666666662
1403637133978319104,-0.19268434942017396,-0.0090757121103705145,0.039793506945470715,10.133538333333334,-0.6701210833333332,-3.6856659583333333
1403637133983319040,-0.19338248112097173,0.0027925268031909274,0.037699111843077518,9.9864385833333333,-0.62108783333333339,-3.5630828333333331
1403637133988318976,-0.19198621771937624,0.011868238913561441,0.032114058236695664,9.7903055833333319,-0.61291562499999996,-3.3751220416666667
1403637133993318912,-0.18919369091618532,0.014660765716752367,0.034208453339088861,9.643205833333333,-0.6292600416666666,-3.2361944999999999
1403637133998319104,-0.17872171540421936,0.021642082724729686,0.034906585039886591,9.643205833333333,-0.71098212499999991,-3.1789890416666662
1403637134003319040,-0.16196655458507375,0.02583087292951608,0.044680428851054839,9.5287949166666657,-0.85808187499999988,-3.1217835833333334
1403637134008318976,-0.1340412865531645,0.033510321638291124,0.052359877559829883,9.6677224583333334,-0.90711512499999991,-3.1217835833333334
1403637134013318912,-0.1054178868204575,0.041887902047863905,0.070511301780570912,9.6268614166666655,-0.84990966666666667,-3.0564059166666664
1403637134018319104,-0.086568330898918744,0.046076692252650306,0.07958701389094143,9.7739611666666661,-0.59657120833333332,-3.1708168333333329
1403637134023319040,-0.08168140899333462,0.05305800926062762,0.078888882190143686,9.7984777916666665,-0.42495483333333334,-3.2198500833333328
1403637134028318976,-0.086568330898918744,0.052359877559829883,0.055152404363020817,9.9292331249999997,-0.21247741666666667,-3.2525389166666665
1403637134033318912,-0.098436569812480182,0.047472955654245766,0.0307177948351002,9.7576167499999986,-0.26151066666666667,-3.2198500833333328
1403637134038319104,-0.11170107212763709,0.045378560551852569,0.0013962634015954637,9.7657889583333333,-0.28602729166666663,-3.2770555416666665
1403637134043319040,-0.1270599695451872,0.041887902047863905,-0.02583087292951608,9.6513780416666659,-0.37592158333333331,-3.3015721666666664
1403637134048318976,-0.14172073526193954,0.045378560551852569,-0.038397243543875248,9.6758946666666663,-0.36774937499999999,-3.2852277500000002
1403637134053318912,-0.1556833692778942,0.048869219055841226,-0.041887902047863905,9.4552450416666662,-0.32688833333333334,-3.2280222916666665
1403637134058319104,-0.17243853009703977,0.05375614096142535,-0.05375614096142535,9.471589458333332,-0.30237170833333332,-3.1953334583333328
1403637134063319040,-0.19338248112097173,0.05375614096142535,-0.062133721370998138,9.242767624999999,-0.31871612500000002,-3.1789890416666662
1403637134068318976,-0.2059488517353309,0.05375614096142535,-0.074001960284559576,9.2509398333333337,-0.36774937499999999,-3.1871612499999999
1403637134073318912,-0.21711895894809458,0.057246799465414,-0.085870199198121014,9.0874956666666655,-0.51484912499999991,-3.1463002083333333
1403637134078319104,-0.22130774915288098,0.05166174585903216,-0.090058989402907408,9.1120122916666659,-0.59657120833333332,-3.1054391666666663
1403637134083319040,-0.21921335405048781,0.055152404363020817,-0.08168140899333462,8.9730847499999999,-0.6701210833333332,-3.0727503333333335
1403637134088318976,-0.21362830044410594,0.055850536063818547,-0.062831853071795868,9.1120122916666659,-0.67829329166666663,-3.1217835833333334
1403637134093318912,-0.20874137853852182,0.059341194567807204,-0.039793506945470715,9.1038400833333331,-0.67829329166666663,-3.1544724166666662
1403637134098319104,-0.20455258833373544,0.064926248174189058,-0.0307177948351002,9.3081452916666674,-0.49850470833333332,-3.1789890416666662
1403637134103319040,-0.2059488517353309,0.067718774977379978,-0.030019663134302467,9.2836286666666652,-0.35140495833333335,-3.1054391666666663
1403637134108318976,-0.20874137853852182,0.069115038378975438,-0.050265482457436693,9.3898673749999997,-0.22882183333333334,-3.0564059166666664
1403637134113318912,-0.21642082724729686,0.069813170079773182,-0.074001960284559576,9.2999730833333327,-0.081722083333333334,-2.9174783749999995
1403637134118319104,-0.22549653935766736,0.069115038378975438,-0.094247779607693802,9.3980395833333326,0.065377666666666667,-2.8929617499999996
1403637134123319040,-0.24225170017681294,0.074700091985357306,-0.11030480872604163,9.2182509999999986,0.073549874999999987,-2.8357562916666668
1403637134128318976,-0.25342180738957665,0.07819075048934597,-0.11309733552923257,9.1201845000000006,0.016344416666666667,-2.7376897916666665
1403637134133318912,-0.25062928058638573,0.091455252804502868,-0.1075122819228507,8.9485681249999995,-0.10623870833333333,-2.6477955
1403637134138319104,-0.24993114888558801,0.095644043009289262,-0.10122909661567112,8.8668460416666655,-0.13892754166666665,-2.5987622500000001
1403637134143319040,-0.24644049038159932,0.10192722831646883,-0.10332349171806432,8.8505016249999997,-0.22882183333333334,-2.582417833333333
1403637134148318976,-0.24504422698000386,0.1054178868204575,-0.11030480872604163,8.9485681249999995,-0.30237170833333332,-2.6723121249999999
1403637134153318912,-0.23876104167282428,0.114493598930828,-0.11379546723003027,9.0384624166666665,-0.35957716666666667,-2.7703786249999998
1403637134158319104,-0.23736477827122882,0.114493598930828,-0.10192722831646883,9.2264232083333333,-0.35140495833333335,-2.852100708333333
1403637134163319040,-0.23177972466484695,0.11798425743481668,-0.094945911308491532,9.3408341249999989,-0.43312704166666666,-2.8602729166666667
1403637134168318976,-0.23387411976724018,0.11938052083641214,-0.08168140899333462,9.6023447916666651,-0.392266,-2.8602729166666667
1403637134173318912,-0.23457225146803787,0.13194689145077129,-0.074700091985357306,9.7167557083333325,-0.40043820833333332,-2.8684451249999996
1403637134178319104,-0.23457225146803787,0.13892820845874865,-0.065624379874986788,9.8556832499999985,-0.37592158333333331,-2.9093061666666666
1403637134183319040,-0.24085543677521751,0.16196655458507375,-0.069115038378975438,9.8475110416666656,-0.392266,-2.9093061666666666
1403637134188318976,-0.24294983187761068,0.1884955592153876,-0.064228116473391328,9.6922390833333321,-0.40043820833333332,-2.9093061666666666
1403637134193318912,-0.24504422698000386,0.21851522234969004,-0.067718774977379978,9.471589458333332,-0.31871612500000002,-2.9583394166666666
1403637134198319104,-0.2527236756887789,0.23736477827122882,-0.071209433481368656,9.1120122916666659,-0.196133,-2.9583394166666666
1403637134203319040,-0.26110125609835172,0.25551620249196988,-0.080285145591739146,8.6870574583333333,-0.15527195833333335,-3.0155448749999998
1403637134208318976,-0.27087509990951991,0.26459191460234038,-0.08307767239493008,8.4010301666666667,-0.10623870833333333,-2.9501672083333332
1403637134213318912,-0.2722713633111154,0.27296949501191314,-0.08168140899333462,8.2375859999999985,-0.11441091666666667,-2.9174783749999995
1403637134218319104,-0.26249751949994715,0.2673844414055313,-0.071209433481368656,8.1068306666666654,-0.25333845833333329,-2.8766173333333334
1403637134223319040,-0.24504422698000386,0.27715828521669955,-0.059341194567807204,8.0986584583333325,-0.32688833333333334,-2.827584083333333
1403637134228318976,-0.22270401255447644,0.28344147052387908,-0.039095375244672985,8.1231750833333329,-0.28602729166666663,-2.7867230416666664
1403637134233318912,-0.1982694030265558,0.29530970943744062,-0.024434609527920613,8.2784470416666665,-0.23699404166666665,-2.7785508333333331
1403637134238319104,-0.17592918860102841,0.31276300195738388,-0.010471975511965976,8.2375859999999985,-0.196133,-2.6968287499999999
1403637134243319040,-0.14800392056911915,0.32253684576855213,0.0,8.253930416666666,-0.15527195833333335,-2.6968287499999999
1403637134248318976,-0.11868238913561441,0.3295181627765294,0.0153588974175501,8.1313472916666658,-0.24516625,-2.5987622500000001
1403637134253318912,-0.097738438111682452,0.33161255787892263,0.025132741228718346,8.204897166666667,-0.14709974999999997,-2.5333845833333335
1403637134258319104,-0.078888882190143686,0.32742376767413622,0.037000980142279788,8.1068306666666654,-0.065377666666666667,-2.5333845833333335
1403637134263319040,-0.057246799465414,0.3246312408709453,0.047472955654245766,8.204897166666667,0.10623870833333333,-2.4434902916666665
1403637134268318976,-0.055850536063818547,0.32532937257174299,0.058643062867009467,8.1640361249999991,0.11441091666666667,-2.3372515833333334
1403637134273318912,-0.055850536063818547,0.33231068957972032,0.058643062867009467,8.2294137916666656,0.13075533333333333,-2.3127349583333334
1403637134278319104,-0.049567350756638949,0.34068826998929314,0.064926248174189058,8.0496252083333317,0.089894291666666667,-2.2228406666666665
1403637134283319040,-0.049567350756638949,0.35395277230445005,0.065624379874986788,8.0577974166666664,0.11441091666666667,-2.2718739166666664
1403637134288318976,-0.045378560551852569,0.36582101121801147,0.07609635538695278,7.7390812916666665,0.18796079166666665,-2.2228406666666665
1403637134293318912,-0.046774823953448029,0.36861353802120245,0.07609635538695278,7.6900480416666666,0.22882183333333334,-2.2473572916666664
1403637134298319104,-0.047472955654245766,0.36861353802120245,0.080285145591739146,7.6001537499999996,0.21247741666666667,-2.2963905416666663
1403637134303319040,-0.047472955654245766,0.36442474781641598,0.069813170079773182,7.7309090833333327,0.21247741666666667,-2.3944570416666666
1403637134308318976,-0.047472955654245766,0.36442474781641598,0.062133721370998138,7.7962867500000002,0.16344416666666667,-2.3944570416666666
1403637134313318912,-0.044680428851054839,0.36163222101322506,0.046774823953448029,7.9515587083333328,0.18796079166666665,-2.4189736666666666
1403637134318319104,-0.040491638646268438,0.36023595761162963,0.044680428851054839,7.9106976666666657,0.13075533333333333,-2.3535959999999996
1403637134323319040,-0.032812189937493394,0.36582101121801147,0.043284165449459372,8.0741418333333339,0.10623870833333333,-2.288218333333333
1403637134328318976,-0.020943951023931952,0.37140606482439331,0.055850536063818547,7.9352142916666661,0.04903325,-2.1983240416666665
1403637134333318912,-0.011868238913561441,0.37699111843077521,0.062831853071795868,8.0087641666666656,0.065377666666666667,-2.1901518333333332
1403637134338319104,-0.0069813170079773184,0.38816122564353883,0.074700091985357306,7.763597916666666,0.081722083333333334,-2.0593964999999996
1403637134343319040,-0.0090757121103705145,0.39025562074593206,0.07749261878854824,7.6001537499999996,0.10623870833333333,-1.9695022083333333
1403637134348318976,-0.008377580409572781,0.39514254265151627,0.075398223686155036,7.2569209999999993,0.17978858333333333,-1.8550912916666666
1403637134353318912,-0.0153588974175501,0.3923500158483253,0.069813170079773182,7.1016490416666658,0.18796079166666665,-1.7978858333333332
1403637134358319104,-0.023038346126325153,0.38885935734433663,0.074700091985357306,6.8564827916666671,0.13075533333333333,-1.6180972499999999
1403637134363319040,-0.029321531433504733,0.37489672332838198,0.078888882190143686,6.7502440833333335,0.22882183333333334,-1.5445473749999998
1403637134368318976,-0.038397243543875248,0.36582101121801147,0.090757121103705138,6.5622832916666667,0.27785508333333331,-1.4955141249999999
1403637134373318912,-0.048171087355043489,0.35674529910764097,0.10611601852125524,6.5949721249999991,0.26968287499999999,-1.5363751666666667
1403637134378319104,-0.057944931166211737,0.35953782591083189,0.11798425743481668,6.5622832916666667,0.21247741666666667,-1.5363751666666667
1403637134383319040,-0.069115038378975438,0.3490658503988659,0.12496557444279401,6.6031443333333328,0.14709974999999997,-1.6017528333333333
1403637134388318976,-0.07819075048934597,0.34278266509168631,0.12985249634837812,6.6031443333333328,0.073549874999999987,-1.6426138750000001
1403637134393318912,-0.085172067497323284,0.33161255787892263,0.13683381335635544,6.6685220000000003,0.040861041666666667,-1.6753027083333332
1403637134398319104,-0.093549647906896058,0.32183871406775438,0.14451326206513049,6.6031443333333328,0.0,-1.7488525833333333
1403637134403319040,-0.096342174710086978,0.30438542154781112,0.16126842288427606,6.684866416666666,-0.032688833333333334,-1.6916471249999998
1403637134408318976,-0.099134701513277898,0.29251718263424964,0.17523105690023066,6.7911051249999996,-0.098066500000000001,-1.7079915416666664
1403637134413318912,-0.092851516206098328,0.27576202181510412,0.18291050560900574,6.913688249999999,-0.081722083333333334,-1.7325081666666666
1403637134418319104,-0.092153384505300612,0.27087509990951991,0.18779742751458986,7.044443583333333,-0.081722083333333334,-1.7079915416666664
1403637134423319040,-0.085172067497323284,0.26040312439755398,0.20525072003453312,7.0771324166666663,-0.089894291666666667,-1.6671305000000001
1403637134428318976,-0.071209433481368656,0.26389378290154258,0.22200588085367873,6.9627214999999989,-0.13075533333333333,-1.6017528333333333
1403637134433318912,-0.060039326268604934,0.25691246589356531,0.24155356847601517,6.774760708333333,-0.17161637500000002,-1.5200307499999999
1403637134438319104,-0.043982297150257102,0.25551620249196988,0.25481807079117208,6.5377666666666663,-0.13892754166666665,-1.3974476249999999
1403637134443319040,-0.027925268031909273,0.23736477827122882,0.27436575841350858,6.235394958333333,-0.089894291666666667,-1.2258312499999999
1403637134448318976,-0.018151424220741029,0.22479840765686968,0.2778564169174973,6.1455006666666669,0.089894291666666667,-1.1931424166666666
1403637134453318912,-0.013962634015954637,0.21223203704251048,0.28623399732707,5.9657120833333321,0.10623870833333333,-1.1277647500000001
1403637134458319104,-0.0090757121103705145,0.19966566642815131,0.2869321290278678,5.9166788333333331,0.15527195833333335,-1.1522813749999998
1403637134463319040,-0.0034906585039886592,0.18500490071139891,0.29670597283903599,5.7859234999999991,0.098066500000000001,-1.1359369583333332
1403637134468318976,0.0034906585039886592,0.17383479349863523,0.29810223624063148,5.8431289583333328,0.17978858333333333,-1.0623870833333333
1403637134473318912,0.0013962634015954637,0.15289084247470325,0.30438542154781112,5.7532346666666667,0.16344416666666667,-1.0378704583333334
1403637134478319104,-0.0062831853071795866,0.13124875974997358,0.2918190509334519,5.9738842916666659,0.3350605416666666,-1.0460426666666667
1403637134483319040,-0.020245819323134219,0.11030480872604163,0.28064894372068816,6.0310897499999996,0.4494714583333333,-1.1032481249999999
1403637134488318976,-0.038397243543875248,0.095644043009289262,0.26040312439755398,6.2108783333333326,0.44129924999999998,-1.1931424166666666
1403637134493318912,-0.050963614158234416,0.08237954069413235,0.24294983187761068,6.2517393749999988,0.3350605416666666,-1.201314625
1403637134498319104,-0.057944931166211737,0.067020643276582248,0.2241002759560719,6.3906669166666656,0.22882183333333334,-1.2421756666666668
1403637134503319040,-0.056548667764616284,0.050265482457436693,0.21642082724729686,6.2926004166666667,0.089894291666666667,-1.2748645000000001
1403637134508318976,-0.059341194567807204,0.038397243543875248,0.20385445663293766,6.3906669166666656,0.081722083333333334,-1.3647587916666666
1403637134513318912,-0.057246799465414,0.02583087292951608,0.19896753472735357,6.2762560000000001,-0.040861041666666667,-1.32389775
1403637134518319104,-0.050265482457436693,0.0090757121103705145,0.19896753472735357,6.3824947083333337,-0.0081722083333333334,-1.3729310000000001
1403637134523319040,-0.037699111843077518,0.00069813170079773186,0.20176006153054449,6.2027061249999988,-0.065377666666666667,-1.2748645000000001
1403637134528318976,-0.02652900463031381,-0.022340214425527419,0.19966566642815131,6.2108783333333326,-0.016344416666666667,-1.2094868333333333
1403637134533318912,-0.010471975511965976,-0.031415926535897934,0.19966566642815131,6.0637785833333329,0.024516625,-1.1931424166666666
1403637134538319104,-0.0041887902047863905,-0.047472955654245766,0.19408061282176942,6.1536728749999989,0.15527195833333335,-1.2258312499999999
1403637134543319040,-0.0013962634015954637,-0.055850536063818547,0.19198621771937624,6.0310897499999996,0.27785508333333331,-1.1849702083333333
1403637134548318976,-0.0041887902047863905,-0.070511301780570912,0.18081611050661253,6.0801229999999995,0.4903325,-1.1931424166666666
1403637134553318912,-0.016057029118347832,-0.078888882190143686,0.16615534478986016,6.0310897499999996,0.64560445833333324,-1.1849702083333333
1403637134558319104,-0.034208453339088861,-0.092153384505300612,0.13962634015954636,6.096467416666667,0.78453200000000001,-1.2094868333333333
1403637134563319040,-0.05445427266222308,-0.1054178868204575,0.1096066770252439,6.0637785833333329,0.84173745833333324,-1.201314625
1403637134568318976,-0.071209433481368656,-0.11728612573401893,0.07958701389094143,6.1781894999999993,0.7436709583333333,-1.2503478749999999
1403637134573318912,-0.088662726001311934,-0.12636183784438945,0.05445427266222308,6.2027061249999988,0.5475379583333333,-1.3157255416666664
1403637134578319104,-0.10122909661567112,-0.14032447186034408,0.032812189937493394,6.3661502916666661,0.43312704166666666,-1.3647587916666666
1403637134583319040,-0.10611601852125524,-0.15289084247470325,0.0090757121103705145,6.3089448333333324,0.26151066666666667,-1.3647587916666666
1403637134588318976,-0.10262536001726656,-0.16894787159305111,0.0020943951023931952,6.4315279583333336,0.17161637500000002,-1.4301364583333334
1403637134593318912,-0.099134701513277898,-0.17592918860102841,-0.0055850536063818549,6.5377666666666663,-0.016344416666666667,-1.4464808749999998
1403637134598319104,-0.094945911308491532,-0.18709929581379212,-0.0090757121103705145,6.5867999166666662,-0.089894291666666667,-1.4628252916666666
1403637134603319040,-0.087266462599716474,-0.19058995431778078,-0.013264502315156905,6.5214222499999996,-0.14709974999999997,-1.4709975
1403637134608318976,-0.067718774977379978,-0.20245819323134223,-0.0097738438111682462,6.5295944583333334,-0.17978858333333333,-1.5036863333333332
1403637134613318912,-0.05445427266222308,-0.20943951023931953,-0.0048869219055841231,6.5295944583333334,-0.196133,-1.5036863333333332
1403637134618319104,-0.042586033748661642,-0.21851522234969004,0.0020943951023931952,6.4887334166666655,-0.18796079166666665,-1.4955141249999999
1403637134623319040,-0.033510321638291124,-0.22340214425527419,0.014660765716752367,6.6113165416666666,-0.098066500000000001,-1.5445473749999998
1403637134628318976,-0.023038346126325153,-0.23177972466484695,0.029321531433504733,6.5377666666666663,-0.016344416666666667,-1.5527195833333332
1403637134633318912,-0.016755160819145562,-0.23177972466484695,0.0307177948351002,6.6031443333333328,0.081722083333333334,-1.5608917916666667
1403637134638319104,-0.016755160819145562,-0.24225170017681294,0.033510321638291124,6.5622832916666667,0.13075533333333333,-1.6262694583333333
1403637134643319040,-0.013962634015954637,-0.24434609527920614,0.030019663134302467,6.6113165416666666,0.23699404166666665,-1.6262694583333333
1403637134648318976,-0.020245819323134219,-0.25411993909037439,0.030019663134302467,6.4560445833333331,0.20430520833333332,-1.593580625
1403637134653318912,-0.027925268031909273,-0.25970499269675623,0.016755160819145562,6.4887334166666655,0.14709974999999997,-1.6262694583333333
1403637134658319104,-0.029321531433504733,-0.26598817800393582,0.0055850536063818549,6.3579780833333324,0.032688833333333334,-1.6099250416666664
1403637134663319040,-0.030019663134302467,-0.27436575841350858,-0.0153588974175501,6.4560445833333331,0.0081722083333333334,-1.6507860833333332
1403637134668318976,-0.027925268031909273,-0.28763026072866549,-0.02722713633111154,6.3743224999999999,-0.024516625,-1.5854084166666664
1403637134673318912,-0.029321531433504733,-0.30298915814621558,-0.045378560551852569,6.5377666666666663,0.024516625,-1.6344416666666666
1403637134678319104,-0.024434609527920613,-0.31625366046137249,-0.056548667764616284,6.5295944583333334,-0.032688833333333334,-1.569064
1403637134683319040,-0.020245819323134219,-0.3295181627765294,-0.065624379874986788,6.8156217499999991,-0.11441091666666667,-1.6180972499999999
1403637134688318976,-0.0076794487087750501,-0.34278266509168631,-0.062831853071795868,7.0526157916666659,-0.26151066666666667,-1.7161637499999998
1403637134693318912,0.0048869219055841231,-0.35116024550125913,-0.057246799465414,7.3631597083333329,-0.32688833333333334,-1.8550912916666666
1403637134698319104,0.021642082724729686,-0.35674529910764097,-0.039095375244672985,7.4448817916666661,-0.46581587499999999,-1.9286411666666665
1403637134703319040,0.048869219055841226,-0.36302848441482055,-0.013264502315156905,7.6410147916666666,-0.51484912499999991,-2.0021910416666664
1403637134708318976,0.07749261878854824,-0.36651914291880922,0.02722713633111154,7.5756371249999992,-0.52302133333333334,-2.1002575416666667
1403637134713318912,0.097040306410884708,-0.37489672332838198,0.059341194567807204,7.7554257083333331,-0.35140495833333335,-2.2963905416666663
