#timestamp [ns],w_RS_S_x [rad s^-1],w_RS_S_y [rad s^-1],w_RS_S_z [rad s^-1],a_RS_S_x [m s^-2],a_RS_S_y [m s^-2],a_RS_S_z [m s^-2]
1403638518097829376,0.00069813170079773186,0.018849555921538759,0.07819075048934597,9.0874956666666655,-0.057205458333333334,-3.8245934999999998
1403638518102829568,-0.0041887902047863905,0.022340214425527419,0.07609635538695278,9.0139457916666661,-0.057205458333333334,-3.8000768749999998
1403638518107829504,-0.0020943951023931952,0.020943951023931952,0.07819075048934597,9.0139457916666661,-0.032688833333333334,-3.8000768749999998
1403638518112829440,-0.0041887902047863905,0.020943951023931952,0.078888882190143686,8.9322237083333338,-0.024516625,-3.8000768749999998
1403638518117829376,-0.0013962634015954637,0.0153588974175501,0.078888882190143686,8.9894291666666657,-0.089894291666666667,-3.7592158333333332
1403638518122829568,0.00069813170079773186,0.021642082724729686,0.080983277292536876,9.0221180000000007,-0.057205458333333334,-3.7837324583333327
1403638518127829504,-0.0020943951023931952,0.019547687622336492,0.08377580409572781,9.0466346249999994,-0.016344416666666667,-3.8164212916666664
1403638518132829440,0.0,0.024434609527920613,0.084473935796525554,9.0221180000000007,-0.065377666666666667,-3.8000768749999998
1403638518137829376,0.0,0.018151424220741029,0.08168140899333462,9.0466346249999994,-0.040861041666666667,-3.7919046666666665
1403638518142829568,0.00069813170079773186,0.025132741228718346,0.07958701389094143,9.0548068333333322,0.016344416666666667,-3.8245934999999998
1403638518147829504,0.00069813170079773186,0.020245819323134219,0.08237954069413235,9.0057735833333332,0.0,-3.7755602499999998
1403638518152829440,-0.0020943951023931952,0.021642082724729686,0.07819075048934597,9.0384624166666665,-0.040861041666666667,-3.7837324583333327
1403638518157829376,-0.0027925268031909274,0.017453292519943295,0.078888882190143686,8.9894291666666657,-0.024516625,-3.8000768749999998
1403638518162829568,-0.0041887902047863905,0.019547687622336492,0.076794487087750496,9.0629790416666669,-0.016344416666666667,-3.8245934999999998
1403638518167829504,-0.0041887902047863905,0.0153588974175501,0.074001960284559576,8.9894291666666657,0.0081722083333333334,-3.7919046666666665
1403638518172829440,-0.0013962634015954637,0.019547687622336492,0.071209433481368656,9.0221180000000007,-0.024516625,-3.7755602499999998
1403638518177829376,-0.0034906585039886592,0.023038346126325153,0.073303828583761846,9.0057735833333332,-0.040861041666666667,-3.7837324583333327
1403638518182829568,-0.0048869219055841231,0.023736477827122883,0.072605696882964116,9.0057735833333332,-0.016344416666666667,-3.7755602499999998
1403638518187829504,-0.0034906585039886592,0.018151424220741029,0.072605696882964116,8.9403959166666649,-0.073549874999999987,-3.7510436249999999
1403638518192829440,-0.00069813170079773186,0.016057029118347832,0.074700091985357306,9.0548068333333322,0.032688833333333334,-3.8082490833333327
1403638518197829376,-0.0013962634015954637,0.017453292519943295,0.07819075048934597,8.9812569583333328,-0.04903325,-3.8082490833333327
1403638518202829568,-0.0020943951023931952,0.018849555921538759,0.075398223686155036,9.1201845000000006,-0.040861041666666667,-3.8164212916666664
1403638518207829504,0.0027925268031909274,0.020245819323134219,0.07958701389094143,8.9730847499999999,-0.10623870833333333,-3.7510436249999999
1403638518212829440,-0.00069813170079773186,0.024434609527920613,0.074700091985357306,9.0956678750000002,-0.04903325,-3.7919046666666665
1403638518217829376,-0.0034906585039886592,0.02583087292951608,0.07819075048934597,8.9240514999999991,-0.057205458333333334,-3.7428714166666661
1403638518222829568,0.0,0.020245819323134219,0.076794487087750496,9.0057735833333332,-0.040861041666666667,-3.8082490833333327
1403638518227829504,0.0020943951023931952,0.017453292519943295,0.08168140899333462,8.9649125416666671,-0.040861041666666667,-3.7919046666666665
1403638518232829440,-0.0020943951023931952,0.021642082724729686,0.07958701389094143,9.1283567083333317,-0.0081722083333333334,-3.857282333333333
1403638518237829376,-0.0034906585039886592,0.021642082724729686,0.08168140899333462,9.0384624166666665,-0.04903325,-3.8409379166666664
1403638518242829568,-0.0020943951023931952,0.02583087292951608,0.08168140899333462,9.0711512499999998,-0.0081722083333333334,-3.8245934999999998
1403638518247829504,-0.0041887902047863905,0.022340214425527419,0.08307767239493008,8.8668460416666655,-0.0081722083333333334,-3.7837324583333327
1403638518252829440,-0.0034906585039886592,0.016755160819145562,0.07749261878854824,9.0057735833333332,0.016344416666666667,-3.8491101249999997
1403638518257829376,-0.0034906585039886592,0.018849555921538759,0.075398223686155036,8.9812569583333328,-0.057205458333333334,-3.7592158333333332
1403638518262829568,-0.0055850536063818549,0.013264502315156905,0.074001960284559576,9.0711512499999998,0.016344416666666667,-3.7919046666666665
1403638518267829504,-0.0020943951023931952,0.016755160819145562,0.080285145591739146,8.9894291666666657,0.0,-3.7673880416666665
1403638518272829440,-0.00069813170079773186,0.020943951023931952,0.074700091985357306,9.0874956666666655,0.032688833333333334,-3.8327657083333331
1403638518277829376,-0.0048869219055841231,0.022340214425527419,0.07819075048934597,8.9812569583333328,0.0,-3.7919046666666665
1403638518282829568,-0.0048869219055841231,0.020943951023931952,0.071907565182166372,9.0466346249999994,-0.024516625,-3.7919046666666665
1403638518287829504,-0.00069813170079773186,0.020943951023931952,0.074001960284559576,8.8995348749999987,-0.065377666666666667,-3.7428714166666661
1403638518292829440,-0.0027925268031909274,0.013264502315156905,0.073303828583761846,9.0139457916666661,-0.040861041666666667,-3.7837324583333327
1403638518297829376,-0.0027925268031909274,0.019547687622336492,0.073303828583761846,9.0629790416666669,-0.057205458333333334,-3.8000768749999998
1403638518302829568,-0.0041887902047863905,0.022340214425527419,0.07749261878854824,9.0711512499999998,-0.04903325,-3.8164212916666664
1403638518307829504,-0.00069813170079773186,0.022340214425527419,0.07749261878854824,8.9894291666666657,-0.073549874999999987,-3.7919046666666665
1403638518312829440,0.00069813170079773186,0.020245819323134219,0.075398223686155036,9.0548068333333322,-0.057205458333333334,-3.7919046666666665
1403638518317829376,0.0,0.021642082724729686,0.080285145591739146,8.9322237083333338,-0.081722083333333334,-3.7837324583333327
1403638518322829568,0.0,0.023038346126325153,0.07958701389094143,9.0874956666666655,-0.032688833333333334,-3.8245934999999998
1403638518327829504,-0.0027925268031909274,0.024434609527920613,0.078888882190143686,8.9567403333333324,-0.089894291666666667,-3.7592158333333332
1403638518332829440,0.0,0.0153588974175501,0.08168140899333462,9.0548068333333322,-0.040861041666666667,-3.8245934999999998
1403638518337829376,-0.0027925268031909274,0.019547687622336492,0.084473935796525554,9.0466346249999994,-0.073549874999999987,-3.8409379166666664
1403638518342829568,-0.0027925268031909274,0.019547687622336492,0.080983277292536876,9.0221180000000007,-0.024516625,-3.7919046666666665
1403638518347829504,-0.0013962634015954637,0.022340214425527419,0.080983277292536876,9.0384624166666665,-0.024516625,-3.7673880416666665
1403638518352829440,-0.00069813170079773186,0.020245819323134219,0.07819075048934597,9.0384624166666665,-0.0081722083333333334,-3.7592158333333332
1403638518357829376,-0.0041887902047863905,0.021642082724729686,0.07958701389094143,9.0057735833333332,0.0081722083333333334,-3.7919046666666665
1403638518362829568,-0.0034906585039886592,0.018151424220741029,0.07749261878854824,9.0384624166666665,-0.04903325,-3.8000768749999998
1403638518367829504,-0.0027925268031909274,0.020245819323134219,0.074001960284559576,9.0302902083333318,-0.024516625,-3.8082490833333327
1403638518372829440,-0.0041887902047863905,0.016755160819145562,0.076794487087750496,9.0384624166666665,-0.04903325,-3.7919046666666665
1403638518377829376,-0.0020943951023931952,0.020245819323134219,0.080983277292536876,8.9976013749999986,0.016344416666666667,-3.7919046666666665
1403638518382829568,-0.00069813170079773186,0.020245819323134219,0.08168140899333462,8.9976013749999986,-0.04903325,-3.7837324583333327
1403638518387829504,-0.0020943951023931952,0.021642082724729686,0.075398223686155036,9.0057735833333332,-0.024516625,-3.7919046666666665
1403638518392829440,-0.0034906585039886592,0.018151424220741029,0.080285145591739146,8.9649125416666671,-0.016344416666666667,-3.8082490833333327
1403638518397829376,-0.0048869219055841231,0.018849555921538759,0.075398223686155036,9.0384624166666665,-0.0081722083333333334,-3.7919046666666665
1403638518402829568,-0.0020943951023931952,0.020943951023931952,0.078888882190143686,8.9730847499999999,-0.04903325,-3.8164212916666664
1403638518407829504,-0.00069813170079773186,0.020943951023931952,0.076794487087750496,9.0793234583333327,-0.024516625,-3.8245934999999998
1403638518412829440,0.00069813170079773186,0.018849555921538759,0.07958701389094143,8.9649125416666671,-0.040861041666666667,-3.7755602499999998
1403638518417829376,-0.0020943951023931952,0.016057029118347832,0.073303828583761846,9.0548068333333322,-0.040861041666666667,-3.7837324583333327
1403638518422829568,-0.0013962634015954637,0.018151424220741029,0.07819075048934597,8.9649125416666671,-0.089894291666666667,-3.7428714166666661
1403638518427829504,-0.0027925268031909274,0.017453292519943295,0.072605696882964116,9.0874956666666655,-0.0081722083333333334,-3.7592158333333332
1403638518432829440,0.00069813170079773186,0.016057029118347832,0.076794487087750496,8.9976013749999986,-0.057205458333333334,-3.7673880416666665
1403638518437829376,0.0,0.018849555921538759,0.076794487087750496,9.0302902083333318,-0.04903325,-3.8164212916666664
1403638518442829568,-0.0034906585039886592,0.020245819323134219,0.078888882190143686,8.9730847499999999,-0.057205458333333334,-3.7919046666666665
1403638518447829504,-0.0013962634015954637,0.025132741228718346,0.076794487087750496,9.0874956666666655,0.024516625,-3.7837324583333327
1403638518452829440,0.0,0.020943951023931952,0.080983277292536876,8.9567403333333324,-0.073549874999999987,-3.7837324583333327
1403638518457829376,-0.00069813170079773186,0.018151424220741029,0.07749261878854824,9.0793234583333327,-0.057205458333333334,-3.8082490833333327
1403638518462829568,-0.0020943951023931952,0.019547687622336492,0.078888882190143686,8.9567403333333324,-0.081722083333333334,-3.7592158333333332
1403638518467829504,-0.0020943951023931952,0.0153588974175501,0.076794487087750496,9.0629790416666669,-0.024516625,-3.8082490833333327
1403638518472829440,-0.0027925268031909274,0.021642082724729686,0.07958701389094143,9.0139457916666661,-0.065377666666666667,-3.7837324583333327
1403638518477829376,0.0048869219055841231,0.018151424220741029,0.080285145591739146,9.1038400833333331,0.024516625,-3.8409379166666664
1403638518482829568,-0.0013962634015954637,0.02583087292951608,0.07958701389094143,8.9812569583333328,-0.040861041666666667,-3.7919046666666665
1403638518487829504,0.0,0.020943951023931952,0.07819075048934597,9.0139457916666661,-0.0081722083333333334,-3.7510436249999999
1403638518492829440,0.0,0.019547687622336492,0.07958701389094143,8.8995348749999987,-0.04903325,-3.7592158333333332
1403638518497829376,-0.0013962634015954637,0.018151424220741029,0.073303828583761846,9.0548068333333322,-0.024516625,-3.8082490833333327
1403638518502829568,-0.0041887902047863905,0.020245819323134219,0.07749261878854824,8.9894291666666657,-0.040861041666666667,-3.8000768749999998
1403638518507829504,-0.00069813170079773186,0.017453292519943295,0.07819075048934597,9.1201845000000006,-0.032688833333333334,-3.8409379166666664
1403638518512829440,-0.0020943951023931952,0.022340214425527419,0.07958701389094143,9.0384624166666665,-0.065377666666666667,-3.8000768749999998
1403638518517829376,-0.0013962634015954637,0.020245819323134219,0.07749261878854824,8.9976013749999986,-0.016344416666666667,-3.8000768749999998
1403638518522829568,0.00069813170079773186,0.023038346126325153,0.072605696882964116,8.9730847499999999,-0.040861041666666667,-3.7592158333333332
1403638518527829504,-0.0013962634015954637,0.017453292519943295,0.074001960284559576,9.0139457916666661,-0.0081722083333333334,-3.7919046666666665
1403638518532829440,-0.0055850536063818549,0.016755160819145562,0.075398223686155036,8.9894291666666657,-0.032688833333333334,-3.7592158333333332
1403638518537829376,-0.0020943951023931952,0.017453292519943295,0.07749261878854824,9.0793234583333327,-0.016344416666666667,-3.7755602499999998
1403638518542829568,-0.0034906585039886592,0.023038346126325153,0.08168140899333462,9.0548068333333322,-0.040861041666666667,-3.8000768749999998
1403638518547829504,-0.0027925268031909274,0.020943951023931952,0.078888882190143686,9.0384624166666665,-0.065377666666666667,-3.7919046666666665
1403638518552829440,0.00069813170079773186,0.023038346126325153,0.07819075048934597,8.9812569583333328,-0.065377666666666667,-3.8000768749999998
1403638518557829376,0.0013962634015954637,0.014660765716752367,0.07749261878854824,8.9730847499999999,-0.073549874999999987,-3.7592158333333332
1403638518562829568,-0.0027925268031909274,0.018849555921538759,0.074700091985357306,9.0384624166666665,-0.016344416666666667,-3.8082490833333327
1403638518567829504,-0.0027925268031909274,0.020943951023931952,0.08237954069413235,9.0302902083333318,-0.0081722083333333334,-3.8000768749999998
1403638518572829440,0.00069813170079773186,0.019547687622336492,0.07609635538695278,9.0874956666666655,0.016344416666666667,-3.8245934999999998
1403638518577829376,-0.0013962634015954637,0.019547687622336492,0.08377580409572781,8.9894291666666657,-0.016344416666666667,-3.8000768749999998
1403638518582829568,-0.0020943951023931952,0.023038346126325153,0.07749261878854824,8.9485681249999995,0.0081722083333333334,-3.8082490833333327
1403638518587829504,-0.0027925268031909274,0.019547687622336492,0.07958701389094143,8.9240514999999991,-0.04903325,-3.7673880416666665
1403638518592829440,-0.0034906585039886592,0.021642082724729686,0.076794487087750496,8.9976013749999986,-0.024516625,-3.7673880416666665
1403638518597829376,0.0034906585039886592,0.018151424220741029,0.080285145591739146,8.9649125416666671,-0.065377666666666667,-3.7755602499999998
1403638518602829568,-0.0013962634015954637,0.024434609527920613,0.07819075048934597,9.0956678750000002,0.0,-3.8164212916666664
1403638518607829504,-0.00069813170079773186,0.023038346126325153,0.078888882190143686,8.9976013749999986,-0.032688833333333334,-3.8164212916666664
1403638518612829440,-0.0027925268031909274,0.020245819323134219,0.072605696882964116,9.0793234583333327,0.0,-3.8000768749999998
1403638518617829376,-0.0027925268031909274,0.020943951023931952,0.07609635538695278,8.9322237083333338,-0.024516625,-3.7673880416666665
1403638518622829568,-0.0034906585039886592,0.016755160819145562,0.074700091985357306,9.0629790416666669,-0.032688833333333334,-3.8000768749999998
1403638518627829504,-0.0048869219055841231,0.018849555921538759,0.07958701389094143,8.9730847499999999,-0.04903325,-3.7510436249999999
1403638518632829440,-0.0027925268031909274,0.018849555921538759,0.07749261878854824,9.0711512499999998,-0.04903325,-3.8082490833333327
1403638518637829376,-0.00069813170079773186,0.022340214425527419,0.075398223686155036,8.9567403333333324,-0.081722083333333334,-3.8000768749999998
1403638518642829568,-0.0027925268031909274,0.023736477827122883,0.076794487087750496,9.0711512499999998,-0.04903325,-3.8164212916666664
1403638518647829504,0.0027925268031909274,0.024434609527920613,0.08307767239493008,8.9567403333333324,-0.073549874999999987,-3.8164212916666664
1403638518652829440,-0.00069813170079773186,0.018849555921538759,0.07819075048934597,9.0711512499999998,0.0,-3.8000768749999998
1403638518657829376,0.0,0.017453292519943295,0.080285145591739146,8.9812569583333328,-0.057205458333333334,-3.7919046666666665
1403638518662829568,0.0,0.018849555921538759,0.080983277292536876,9.1038400833333331,-0.032688833333333334,-3.8082490833333327
1403638518667829504,-0.00069813170079773186,0.018849555921538759,0.08168140899333462,8.9976013749999986,-0.057205458333333334,-3.7673880416666665
1403638518672829440,-0.0020943951023931952,0.019547687622336492,0.080983277292536876,9.0956678750000002,-0.016344416666666667,-3.8082490833333327
1403638518677829376,-0.0027925268031909274,0.021642082724729686,0.076794487087750496,8.9976013749999986,-0.016344416666666667,-3.8000768749999998
1403638518682829568,-0.00069813170079773186,0.018849555921538759,0.08237954069413235,9.0548068333333322,-0.0081722083333333334,-3.7919046666666665
1403638518687829504,-0.0020943951023931952,0.024434609527920613,0.07958701389094143,9.0221180000000007,0.0,-3.7837324583333327
1403638518692829440,-0.0027925268031909274,0.018849555921538759,0.076794487087750496,9.0548068333333322,-0.0081722083333333334,-3.7592158333333332
1403638518697829376,-0.0027925268031909274,0.018849555921538759,0.07609635538695278,8.9976013749999986,-0.057205458333333334,-3.7919046666666665
1403638518702829568,-0.0041887902047863905,0.019547687622336492,0.07819075048934597,9.0629790416666669,-0.0081722083333333334,-3.8245934999999998
1403638518707829504,-0.0041887902047863905,0.020245819323134219,0.076794487087750496,8.9894291666666657,-0.057205458333333334,-3.8000768749999998
1403638518712829440,-0.0034906585039886592,0.016755160819145562,0.07609635538695278,9.0466346249999994,-0.057205458333333334,-3.8164212916666664
1403638518717829376,-0.0034906585039886592,0.022340214425527419,0.073303828583761846,9.0221180000000007,-0.04903325,-3.7837324583333327
1403638518722829568,-0.0027925268031909274,0.018849555921538759,0.074700091985357306,9.0302902083333318,-0.024516625,-3.7837324583333327
1403638518727829504,-0.0041887902047863905,0.016755160819145562,0.07749261878854824,9.0139457916666661,0.0081722083333333334,-3.7919046666666665
1403638518732829440,-0.0013962634015954637,0.018151424220741029,0.078888882190143686,8.9894291666666657,-0.081722083333333334,-3.7837324583333327
1403638518737829376,-0.0020943951023931952,0.022340214425527419,0.075398223686155036,9.0629790416666669,-0.024516625,-3.7837324583333327
1403638518742829568,-0.0034906585039886592,0.018151424220741029,0.07958701389094143,9.0711512499999998,-0.04903325,-3.7673880416666665
1403638518747829504,-0.0013962634015954637,0.02583087292951608,0.08168140899333462,9.0139457916666661,-0.065377666666666667,-3.7755602499999998
1403638518752829440,-0.00069813170079773186,0.020245819323134219,0.08307767239493008,9.0057735833333332,-0.073549874999999987,-3.7919046666666665
1403638518757829376,-0.0020943951023931952,0.020245819323134219,0.080983277292536876,9.0466346249999994,-0.024516625,-3.8164212916666664
1403638518762829568,-0.0027925268031909274,0.017453292519943295,0.08168140899333462,8.9730847499999999,-0.073549874999999987,-3.7837324583333327
1403638518767829504,-0.0034906585039886592,0.023736477827122883,0.078888882190143686,9.1038400833333331,0.0,-3.8164212916666664
1403638518772829440,-0.0034906585039886592,0.022340214425527419,0.080285145591739146,8.9649125416666671,-0.032688833333333334,-3.8000768749999998
1403638518777829376,-0.0034906585039886592,0.018151424220741029,0.078888882190143686,9.0548068333333322,-0.04903325,-3.8000768749999998
1403638518782829568,0.0013962634015954637,0.021642082724729686,0.080285145591739146,8.9730847499999999,-0.065377666666666667,-3.7919046666666665
1403638518787829504,-0.0013962634015954637,0.020245819323134219,0.07819075048934597,9.0793234583333327,0.0,-3.8245934999999998
1403638518792829440,0.0,0.020245819323134219,0.07958701389094143,8.9485681249999995,-0.016344416666666667,-3.7919046666666665
1403638518797829376,-0.0034906585039886592,0.017453292519943295,0.073303828583761846,9.0711512499999998,0.024516625,-3.8327657083333331
1403638518802829568,-0.0048869219055841231,0.020245819323134219,0.076794487087750496,8.9649125416666671,-0.0081722083333333334,-3.8000768749999998
1403638518807829504,-0.0013962634015954637,0.020245819323134219,0.074700091985357306,9.0548068333333322,-0.024516625,-3.8082490833333327
1403638518812829440,-0.0020943951023931952,0.018849555921538759,0.078888882190143686,8.9894291666666657,-0.073549874999999987,-3.7755602499999998
1403638518817829376,-0.0034906585039886592,0.017453292519943295,0.078888882190143686,9.0629790416666669,-0.040861041666666667,-3.7919046666666665
1403638518822829568,-0.0048869219055841231,0.016057029118347832,0.076794487087750496,8.9158792916666663,-0.040861041666666667,-3.7837324583333327
1403638518827829504,-0.0013962634015954637,0.016755160819145562,0.074700091985357306,9.0629790416666669,-0.040861041666666667,-3.7919046666666665
1403638518832829440,-0.0013962634015954637,0.021642082724729686,0.07958701389094143,8.9403959166666649,-0.057205458333333334,-3.8082490833333327
1403638518837829376,-0.0027925268031909274,0.018151424220741029,0.076794487087750496,9.0548068333333322,-0.032688833333333334,-3.8164212916666664
1403638518842829568,-0.0020943951023931952,0.023038346126325153,0.074700091985357306,8.9976013749999986,-0.065377666666666667,-3.7919046666666665
1403638518847829504,-0.00069813170079773186,0.018849555921538759,0.07819075048934597,9.0711512499999998,-0.04903325,-3.7919046666666665
1403638518852829440,0.0,0.013962634015954637,0.07958701389094143,8.9894291666666657,-0.057205458333333334,-3.8164212916666664
1403638518857829376,0.0020943951023931952,0.013264502315156905,0.07609635538695278,9.0956678750000002,-0.04903325,-3.8000768749999998
1403638518862829568,-0.0013962634015954637,0.018849555921538759,0.074001960284559576,8.9649125416666671,-0.040861041666666667,-3.7673880416666665
1403638518867829504,-0.0034906585039886592,0.018151424220741029,0.07609635538695278,9.0384624166666665,-0.040861041666666667,-3.8000768749999998
1403638518872829440,-0.0020943951023931952,0.022340214425527419,0.078888882190143686,9.0139457916666661,-0.032688833333333334,-3.8164212916666664
1403638518877829376,-0.0027925268031909274,0.019547687622336492,0.08237954069413235,9.0302902083333318,-0.081722083333333334,-3.7837324583333327
1403638518882829568,-0.0041887902047863905,0.023038346126325153,0.07958701389094143,9.0139457916666661,-0.057205458333333334,-3.8000768749999998
1403638518887829504,-0.00069813170079773186,0.019547687622336492,0.078888882190143686,9.0384624166666665,-0.057205458333333334,-3.7919046666666665
1403638518892829440,-0.0027925268031909274,0.022340214425527419,0.07819075048934597,9.0548068333333322,-0.04903325,-3.8082490833333327
1403638518897829376,0.0,0.018151424220741029,0.078888882190143686,9.0057735833333332,-0.073549874999999987,-3.7837324583333327
1403638518902829568,0.0,0.018151424220741029,0.07749261878854824,9.0057735833333332,-0.016344416666666667,-3.7919046666666665
1403638518907829504,0.0013962634015954637,0.018849555921538759,0.075398223686155036,9.0221180000000007,-0.040861041666666667,-3.7919046666666665
1403638518912829440,-0.0034906585039886592,0.025132741228718346,0.074001960284559576,9.0629790416666669,-0.04903325,-3.8082490833333327
1403638518917829376,-0.0027925268031909274,0.022340214425527419,0.07609635538695278,8.9649125416666671,-0.040861041666666667,-3.7919046666666665
1403638518922829568,-0.0034906585039886592,0.024434609527920613,0.073303828583761846,9.0629790416666669,-0.024516625,-3.8000768749999998
1403638518927829504,-0.0020943951023931952,0.018151424220741029,0.07819075048934597,9.0139457916666661,-0.032688833333333334,-3.8164212916666664
1403638518932829440,-0.0027925268031909274,0.019547687622336492,0.07819075048934597,9.0466346249999994,-0.016344416666666667,-3.8164212916666664
1403638518937829376,-0.0062831853071795866,0.017453292519943295,0.080285145591739146,8.9322237083333338,-0.065377666666666667,-3.7673880416666665
1403638518942829568,-0.00069813170079773186,0.020943951023931952,0.075398223686155036,9.1120122916666659,-0.065377666666666667,-3.8245934999999998
1403638518947829504,0.0013962634015954637,0.021642082724729686,0.080285145591739146,8.9812569583333328,-0.098066500000000001,-3.8000768749999998
1403638518952829440,-0.00069813170079773186,0.020245819323134219,0.078888882190143686,9.0548068333333322,-0.016344416666666667,-3.8000768749999998
1403638518957829376,-0.0041887902047863905,0.021642082724729686,0.07749261878854824,8.9812569583333328,-0.0081722083333333334,-3.7592158333333332
1403638518962829568,-0.0020943951023931952,0.016755160819145562,0.07609635538695278,9.0384624166666665,0.0081722083333333334,-3.8000768749999998
1403638518967829504,-0.0013962634015954637,0.018849555921538759,0.080285145591739146,9.0057735833333332,-0.081722083333333334,-3.7837324583333327
1403638518972829440,-0.0041887902047863905,0.020245819323134219,0.07819075048934597,9.0956678750000002,-0.032688833333333334,-3.8245934999999998
1403638518977829376,-0.0048869219055841231,0.018849555921538759,0.07609635538695278,8.9812569583333328,-0.057205458333333334,-3.8164212916666664
1403638518982829568,-0.0034906585039886592,0.018849555921538759,0.07749261878854824,9.1038400833333331,0.0081722083333333334,-3.8327657083333331
1403638518987829504,0.0,0.020943951023931952,0.07819075048934597,8.9894291666666657,0.0,-3.7919046666666665
1403638518992829440,-0.0020943951023931952,0.021642082724729686,0.07609635538695278,9.0302902083333318,-0.040861041666666667,-3.8000768749999998
1403638518997829376,-0.00069813170079773186,0.023038346126325153,0.07819075048934597,8.9485681249999995,-0.073549874999999987,-3.7755602499999998
1403638519002829568,-0.0020943951023931952,0.018849555921538759,0.080983277292536876,9.0466346249999994,-0.0081722083333333334,-3.8000768749999998
1403638519007829504,-0.0027925268031909274,0.020245819323134219,0.07819075048934597,9.0057735833333332,-0.065377666666666667,-3.7592158333333332
1403638519012829440,-0.0013962634015954637,0.018151424220741029,0.074001960284559576,9.1447011249999992,0.0,-3.8327657083333331
1403638519017829376,0.0013962634015954637,0.021642082724729686,0.076794487087750496,8.9567403333333324,-0.0081722083333333334,-3.8164212916666664
1403638519022829568,0.0,0.024434609527920613,0.07749261878854824,9.0711512499999998,-0.032688833333333334,-3.8245934999999998
1403638519027829504,-0.00069813170079773186,0.027925268031909273,0.076794487087750496,8.9812569583333328,-0.0081722083333333334,-3.8245934999999998
1403638519032829440,-0.0020943951023931952,0.023736477827122883,0.08237954069413235,9.0057735833333332,-0.040861041666666667,-3.7837324583333327
1403638519037829376,-0.0027925268031909274,0.021642082724729686,0.07958701389094143,9.0139457916666661,0.016344416666666667,-3.8082490833333327
1403638519042829568,-0.0013962634015954637,0.0153588974175501,0.08377580409572781,9.0384624166666665,-0.040861041666666667,-3.7919046666666665
1403638519047829504,-0.0041887902047863905,0.019547687622336492,0.076794487087750496,8.9976013749999986,-0.073549874999999987,-3.8164212916666664
1403638519052829440,-0.0020943951023931952,0.016755160819145562,0.078888882190143686,9.0139457916666661,-0.10623870833333333,-3.8164212916666664
1403638519057829376,-0.0013962634015954637,0.023038346126325153,0.076794487087750496,9.0711512499999998,-0.04903325,-3.8164212916666664
1403638519062829568,0.0,0.021642082724729686,0.08168140899333462,8.9894291666666657,-0.032688833333333334,-3.7919046666666665
1403638519067829504,0.0,0.024434609527920613,0.074001960284559576,9.0548068333333322,-0.0081722083333333334,-3.7837324583333327
1403638519072829440,-0.0020943951023931952,0.019547687622336492,0.078888882190143686,8.9894291666666657,-0.016344416666666667,-3.7510436249999999
1403638519077829376,-0.0041887902047863905,0.018151424220741029,0.078888882190143686,9.0302902083333318,-0.016344416666666667,-3.7837324583333327
1403638519082829568,-0.0013962634015954637,0.018849555921538759,0.07958701389094143,8.9894291666666657,-0.073549874999999987,-3.7919046666666665
1403638519087829504,-0.0041887902047863905,0.023736477827122883,0.07749261878854824,9.0793234583333327,0.0081722083333333334,-3.8327657083333331
1403638519092829440,-0.00069813170079773186,0.023038346126325153,0.078888882190143686,8.9567403333333324,-0.032688833333333334,-3.7919046666666665
1403638519097829376,0.0,0.020943951023931952,0.07819075048934597,9.0629790416666669,-0.040861041666666667,-3.7919046666666665
1403638519102829568,0.0,0.021642082724729686,0.076794487087750496,8.9403959166666649,-0.016344416666666667,-3.7755602499999998
1403638519107829504,0.0,0.017453292519943295,0.073303828583761846,9.0548068333333322,-0.0081722083333333334,-3.8082490833333327
1403638519112829440,-0.0041887902047863905,0.020245819323134219,0.07749261878854824,8.9567403333333324,0.0,-3.7755602499999998
1403638519117829376,-0.0048869219055841231,0.016755160819145562,0.076794487087750496,9.0711512499999998,0.0081722083333333334,-3.8164212916666664
1403638519122829568,-0.0041887902047863905,0.018849555921538759,0.078888882190143686,9.0139457916666661,-0.024516625,-3.8082490833333327
1403638519127829504,-0.0034906585039886592,0.017453292519943295,0.07749261878854824,9.0874956666666655,0.0,-3.8082490833333327
1403638519132829440,-0.0034906585039886592,0.020943951023931952,0.078888882190143686,8.9240514999999991,-0.089894291666666667,-3.7673880416666665
1403638519137829376,-0.0013962634015954637,0.022340214425527419,0.075398223686155036,9.0548068333333322,-0.065377666666666667,-3.8164212916666664
1403638519142829568,-0.0013962634015954637,0.020943951023931952,0.07749261878854824,8.9730847499999999,-0.073549874999999987,-3.8082490833333327
1403638519147829504,0.0013962634015954637,0.018849555921538759,0.074700091985357306,9.0548068333333322,-0.032688833333333334,-3.8000768749999998
1403638519152829440,-0.0048869219055841231,0.024434609527920613,0.07609635538695278,9.0384624166666665,-0.016344416666666667,-3.8000768749999998
1403638519157829376,-0.0041887902047863905,0.022340214425527419,0.080285145591739146,8.9730847499999999,-0.016344416666666667,-3.7919046666666665
1403638519162829568,-0.0055850536063818549,0.023736477827122883,0.07958701389094143,9.0057735833333332,-0.024516625,-3.8082490833333327
1403638519167829504,-0.0027925268031909274,0.020943951023931952,0.07819075048934597,9.0548068333333322,-0.024516625,-3.8000768749999998
1403638519172829440,-0.0069813170079773184,0.020943951023931952,0.07749261878854824,9.0139457916666661,-0.04903325,-3.7919046666666665
1403638519177829376,-0.0013962634015954637,0.0153588974175501,0.076794487087750496,9.1038400833333331,-0.016344416666666667,-3.8164212916666664
1403638519182829568,-0.0020943951023931952,0.020245819323134219,0.07749261878854824,9.0139457916666661,-0.024516625,-3.7919046666666665
1403638519187829504,0.00069813170079773186,0.019547687622336492,0.07819075048934597,9.0466346249999994,0.0,-3.7919046666666665
1403638519192829440,-0.0041887902047863905,0.02652900463031381,0.07958701389094143,9.0221180000000007,-0.0081722083333333334,-3.7919046666666665
1403638519197829376,-0.0034906585039886592,0.020245819323134219,0.080983277292536876,8.9976013749999986,-0.016344416666666667,-3.7919046666666665
1403638519202829568,-0.0020943951023931952,0.023038346126325153,0.07749261878854824,9.0548068333333322,0.016344416666666667,-3.7919046666666665
1403638519207829504,-0.0020943951023931952,0.016755160819145562,0.078888882190143686,9.0384624166666665,-0.065377666666666667,-3.8164212916666664
1403638519212829440,-0.0020943951023931952,0.020943951023931952,0.078888882190143686,9.0956678750000002,-0.040861041666666667,-3.8164212916666664
1403638519217829376,-0.0027925268031909274,0.020245819323134219,0.078888882190143686,8.9730847499999999,-0.065377666666666667,-3.8082490833333327
1403638519222829568,-0.0027925268031909274,0.023736477827122883,0.07609635538695278,9.0139457916666661,-0.0081722083333333334,-3.8164212916666664
1403638519227829504,-0.00069813170079773186,0.024434609527920613,0.080285145591739146,8.9812569583333328,-0.065377666666666667,-3.7837324583333327
1403638519232829440,-0.0013962634015954637,0.020245819323134219,0.071907565182166372,9.0793234583333327,-0.024516625,-3.8164212916666664
1403638519237829376,0.0013962634015954637,0.020245819323134219,0.07609635538695278,8.9730847499999999,-0.057205458333333334,-3.8000768749999998
1403638519242829568,-0.0020943951023931952,0.019547687622336492,0.07958701389094143,9.0629790416666669,0.0081722083333333334,-3.8409379166666664
1403638519247829504,-0.0020943951023931952,0.020943951023931952,0.080983277292536876,8.9567403333333324,-0.04903325,-3.7919046666666665
1403638519252829440,-0.0020943951023931952,0.023038346126325153,0.073303828583761846,9.0302902083333318,-0.032688833333333334,-3.7919046666666665
1403638519257829376,-0.0020943951023931952,0.018151424220741029,0.07609635538695278,8.9485681249999995,-0.089894291666666667,-3.7755602499999998
1403638519262829568,-0.0041887902047863905,0.023736477827122883,0.07609635538695278,9.1120122916666659,-0.024516625,-3.7919046666666665
1403638519267829504,-0.0041887902047863905,0.020943951023931952,0.078888882190143686,8.9322237083333338,-0.04903325,-3.7837324583333327
1403638519272829440,-0.0041887902047863905,0.020245819323134219,0.07958701389094143,9.0139457916666661,0.0,-3.8327657083333331
1403638519277829376,-0.0027925268031909274,0.023038346126325153,0.08237954069413235,8.9322237083333338,-0.04903325,-3.7755602499999998
1403638519282829568,0.0013962634015954637,0.020245819323134219,0.07958701389094143,9.1120122916666659,0.0,-3.8245934999999998
1403638519287829504,-0.00069813170079773186,0.018849555921538759,0.08168140899333462,8.9649125416666671,-0.040861041666666667,-3.7755602499999998
1403638519292829440,-0.0020943951023931952,0.023736477827122883,0.07819075048934597,9.0384624166666665,-0.040861041666666667,-3.7837324583333327
1403638519297829376,-0.0041887902047863905,0.022340214425527419,0.080285145591739146,8.9240514999999991,-0.098066500000000001,-3.7837324583333327
1403638519302829568,-0.0013962634015954637,0.018151424220741029,0.074700091985357306,9.0139457916666661,-0.024516625,-3.8164212916666664
1403638519307829504,-0.00069813170079773186,0.023736477827122883,0.07819075048934597,8.9894291666666657,-0.0081722083333333334,-3.8000768749999998
1403638519312829440,-0.00069813170079773186,0.019547687622336492,0.078888882190143686,9.0548068333333322,-0.0081722083333333334,-3.8327657083333331
1403638519317829376,-0.0027925268031909274,0.02583087292951608,0.078888882190143686,9.0139457916666661,-0.040861041666666667,-3.8082490833333327
1403638519322829568,-0.0027925268031909274,0.018849555921538759,0.080285145591739146,9.0466346249999994,0.0,-3.7919046666666665
1403638519327829504,-0.0013962634015954637,0.020943951023931952,0.07958701389094143,8.9730847499999999,-0.040861041666666667,-3.7510436249999999
1403638519332829440,0.0013962634015954637,0.011868238913561441,0.075398223686155036,9.0384624166666665,-0.016344416666666667,-3.7755602499999998
1403638519337829376,-0.0034906585039886592,0.0153588974175501,0.071907565182166372,9.0548068333333322,-0.057205458333333334,-3.7837324583333327
1403638519342829568,-0.0034906585039886592,0.019547687622336492,0.075398223686155036,9.0384624166666665,-0.073549874999999987,-3.7837324583333327
1403638519347829504,-0.0034906585039886592,0.021642082724729686,0.075398223686155036,9.0548068333333322,-0.016344416666666667,-3.7919046666666665
1403638519352829440,-0.0013962634015954637,0.016755160819145562,0.080983277292536876,9.0466346249999994,0.0,-3.7919046666666665
1403638519357829376,-0.0041887902047863905,0.023038346126325153,0.076794487087750496,9.0139457916666661,-0.0081722083333333334,-3.8000768749999998
1403638519362829568,-0.0013962634015954637,0.020943951023931952,0.078888882190143686,8.9730847499999999,-0.024516625,-3.7673880416666665
1403638519367829504,-0.0020943951023931952,0.020245819323134219,0.07609635538695278,9.0221180000000007,-0.024516625,-3.7837324583333327
1403638519372829440,-0.0041887902047863905,0.016755160819145562,0.08168140899333462,8.9567403333333324,-0.040861041666666667,-3.7673880416666665
1403638519377829376,-0.0034906585039886592,0.019547687622336492,0.076794487087750496,9.0874956666666655,0.0081722083333333334,-3.8082490833333327
1403638519382829568,-0.0020943951023931952,0.021642082724729686,0.076794487087750496,8.9240514999999991,-0.0081722083333333334,-3.7837324583333327
1403638519387829504,0.0013962634015954637,0.021642082724729686,0.074700091985357306,9.0548068333333322,-0.016344416666666667,-3.7837324583333327
1403638519392829440,0.0,0.023736477827122883,0.07958701389094143,8.9812569583333328,-0.057205458333333334,-3.7755602499999998
1403638519397829376,-0.0041887902047863905,0.021642082724729686,0.078888882190143686,9.0384624166666665,-0.016344416666666667,-3.7837324583333327
1403638519402829568,-0.0020943951023931952,0.020245819323134219,0.07958701389094143,8.9730847499999999,-0.016344416666666667,-3.7919046666666665
1403638519407829504,0.0,0.021642082724729686,0.075398223686155036,9.0548068333333322,0.04903325,-3.8245934999999998
1403638519412829440,-0.0027925268031909274,0.018849555921538759,0.07609635538695278,8.9649125416666671,-0.04903325,-3.7755602499999998
1403638519417829376,-0.0048869219055841231,0.019547687622336492,0.076794487087750496,9.0874956666666655,-0.016344416666666667,-3.8000768749999998
1403638519422829568,-0.0041887902047863905,0.023038346126325153,0.078888882190143686,8.9894291666666657,-0.04903325,-3.8000768749999998
1403638519427829504,-0.00069813170079773186,0.022340214425527419,0.07609635538695278,9.1038400833333331,-0.016344416666666667,-3.8164212916666664
1403638519432829440,-0.0034906585039886592,0.022340214425527419,0.078888882190143686,8.9567403333333324,-0.04903325,-3.7673880416666665
1403638519437829376,-0.00069813170079773186,0.018151424220741029,0.078888882190143686,8.9976013749999986,0.024516625,-3.8000768749999998
1403638519442829568,-0.0062831853071795866,0.018849555921538759,0.075398223686155036,8.9485681249999995,-0.016344416666666667,-3.7755602499999998
1403638519447829504,-0.0027925268031909274,0.017453292519943295,0.076794487087750496,9.0956678750000002,-0.024516625,-3.7919046666666665
1403638519452829440,-0.0027925268031909274,0.020245819323134219,0.07958701389094143,8.9730847499999999,-0.089894291666666667,-3.8082490833333327
1403638519457829376,-0.0020943951023931952,0.021642082724729686,0.07819075048934597,9.0711512499999998,-0.057205458333333334,-3.8409379166666664
1403638519462829568,0.0,0.020245819323134219,0.076794487087750496,8.9812569583333328,-0.073549874999999987,-3.8082490833333327
1403638519467829504,0.0,0.020245819323134219,0.076794487087750496,9.0302902083333318,-0.065377666666666667,-3.8082490833333327
1403638519472829440,-0.00069813170079773186,0.023038346126325153,0.07958701389094143,9.0221180000000007,-0.040861041666666667,-3.8082490833333327
1403638519477829376,0.0,0.018151424220741029,0.078888882190143686,9.0139457916666661,-0.04903325,-3.8164212916666664
1403638519482829568,-0.0013962634015954637,0.023038346126325153,0.078888882190143686,9.0548068333333322,-0.016344416666666667,-3.8082490833333327
1403638519487829504,-0.0020943951023931952,0.018849555921538759,0.08307767239493008,9.0221180000000007,-0.04903325,-3.7919046666666665
1403638519492829440,-0.0062831853071795866,0.020245819323134219,0.07819075048934597,8.9894291666666657,-0.057205458333333334,-3.8164212916666664
1403638519497829376,-0.0013962634015954637,0.018849555921538759,0.08237954069413235,9.0302902083333318,-0.0081722083333333334,-3.7755602499999998
1403638519502829568,-0.0055850536063818549,0.021642082724729686,0.07958701389094143,9.0221180000000007,-0.04903325,-3.7919046666666665
1403638519507829504,0.00069813170079773186,0.018151424220741029,0.080285145591739146,9.0384624166666665,-0.04903325,-3.8000768749999998
1403638519512829440,-0.0020943951023931952,0.023038346126325153,0.07819075048934597,9.0221180000000007,-0.032688833333333334,-3.7755602499999998
1403638519517829376,-0.00069813170079773186,0.019547687622336492,0.07609635538695278,9.0221180000000007,-0.040861041666666667,-3.8164212916666664
1403638519522829568,-0.0020943951023931952,0.023038346126325153,0.074700091985357306,9.1365289166666663,-0.0081722083333333334,-3.8164212916666664
1403638519527829504,-0.0027925268031909274,0.020943951023931952,0.07958701389094143,9.0139457916666661,-0.04903325,-3.8000768749999998
1403638519532829440,-0.0048869219055841231,0.021642082724729686,0.075398223686155036,9.0466346249999994,-0.016344416666666667,-3.7919046666666665
1403638519537829376,0.0034906585039886592,0.019547687622336492,0.074001960284559576,8.9077070833333334,-0.057205458333333334,-3.7673880416666665
1403638519542829568,-0.00069813170079773186,0.018849555921538759,0.074001960284559576,9.0221180000000007,-0.024516625,-3.7837324583333327
1403638519547829504,-0.0027925268031909274,0.020245819323134219,0.076794487087750496,9.0057735833333332,-0.073549874999999987,-3.8000768749999998
1403638519552829440,-0.0069813170079773184,0.022340214425527419,0.07609635538695278,9.1283567083333317,-0.0081722083333333334,-3.8082490833333327
1403638519557829376,-0.0034906585039886592,0.022340214425527419,0.07819075048934597,8.9730847499999999,-0.081722083333333334,-3.7673880416666665
1403638519562829568,0.0027925268031909274,0.022340214425527419,0.073303828583761846,9.0874956666666655,-0.016344416666666667,-3.8164212916666664
1403638519567829504,0.0013962634015954637,0.020245819323134219,0.080983277292536876,8.9649125416666671,-0.040861041666666667,-3.7837324583333327
1403638519572829440,-0.00069813170079773186,0.017453292519943295,0.080285145591739146,9.0466346249999994,0.0,-3.7755602499999998
1403638519577829376,0.0,0.018849555921538759,0.078888882190143686,8.9322237083333338,-0.057205458333333334,-3.7755602499999998
1403638519582829568,-0.0013962634015954637,0.019547687622336492,0.078888882190143686,9.0874956666666655,0.016344416666666667,-3.8164212916666664
1403638519587829504,-0.0013962634015954637,0.020943951023931952,0.07958701389094143,8.9649125416666671,0.016344416666666667,-3.7919046666666665
1403638519592829440,-0.0048869219055841231,0.018151424220741029,0.07749261878854824,9.1038400833333331,-0.0081722083333333334,-3.8000768749999998
1403638519597829376,-0.0020943951023931952,0.021642082724729686,0.076794487087750496,8.9812569583333328,-0.065377666666666667,-3.7673880416666665
1403638519602829568,-0.0020943951023931952,0.016057029118347832,0.07609635538695278,9.0384624166666665,-0.032688833333333334,-3.7837324583333327
1403638519607829504,-0.0013962634015954637,0.019547687622336492,0.080285145591739146,8.9976013749999986,-0.057205458333333334,-3.8164212916666664
1403638519612829440,-0.0027925268031909274,0.020245819323134219,0.074001960284559576,9.0384624166666665,-0.0081722083333333334,-3.8164212916666664
1403638519617829376,-0.0027925268031909274,0.023736477827122883,0.076794487087750496,9.0057735833333332,-0.016344416666666667,-3.8164212916666664
1403638519622829568,-0.0020943951023931952,0.022340214425527419,0.07958701389094143,9.0466346249999994,-0.016344416666666667,-3.8164212916666664
1403638519627829504,-0.0041887902047863905,0.024434609527920613,0.078888882190143686,8.9158792916666663,-0.016344416666666667,-3.7837324583333327
1403638519632829440,-0.00069813170079773186,0.018151424220741029,0.078888882190143686,8.9158792916666663,-0.065377666666666667,-3.7837324583333327
1403638519637829376,-0.00069813170079773186,0.018151424220741029,0.07609635538695278,8.9812569583333328,-0.04903325,-3.7837324583333327
1403638519642829568,-0.00069813170079773186,0.013264502315156905,0.074700091985357306,9.0221180000000007,-0.065377666666666667,-3.7919046666666665
1403638519647829504,-0.0048869219055841231,0.018151424220741029,0.07749261878854824,9.0711512499999998,-0.057205458333333334,-3.7919046666666665
1403638519652829440,-0.0013962634015954637,0.016057029118347832,0.07819075048934597,8.9894291666666657,-0.04903325,-3.8164212916666664
1403638519657829376,0.0,0.018151424220741029,0.07819075048934597,9.0629790416666669,0.0,-3.8327657083333331
1403638519662829568,-0.0020943951023931952,0.020245819323134219,0.080285145591739146,9.0139457916666661,-0.065377666666666667,-3.8000768749999998
1403638519667829504,-0.0013962634015954637,0.024434609527920613,0.073303828583761846,9.0221180000000007,-0.0081722083333333334,-3.7919046666666665
1403638519672829440,-0.0027925268031909274,0.020943951023931952,0.07958701389094143,8.9567403333333324,-0.073549874999999987,-3.7592158333333332
1403638519677829376,-0.0048869219055841231,0.018849555921538759,0.075398223686155036,9.0221180000000007,-0.065377666666666667,-3.7919046666666665
1403638519682829568,-0.0013962634015954637,0.014660765716752367,0.07609635538695278,8.9485681249999995,-0.073549874999999987,-3.7510436249999999
1403638519687829504,0.00069813170079773186,0.020943951023931952,0.07749261878854824,9.1038400833333331,-0.024516625,-3.8164212916666664
1403638519692829440,0.0034906585039886592,0.021642082724729686,0.080983277292536876,8.9894291666666657,-0.04903325,-3.7755602499999998
1403638519697829376,0.0020943951023931952,0.020943951023931952,0.075398223686155036,9.0956678750000002,-0.024516625,-3.8000768749999998
1403638519702829568,0.0,0.019547687622336492,0.075398223686155036,8.9322237083333338,-0.0081722083333333334,-3.7919046666666665
1403638519707829504,-0.0034906585039886592,0.013264502315156905,0.075398223686155036,9.0548068333333322,-0.024516625,-3.8082490833333327
1403638519712829440,-0.0020943951023931952,0.022340214425527419,0.07749261878854824,8.9812569583333328,-0.098066500000000001,-3.7919046666666665
1403638519717829376,-0.0055850536063818549,0.018151424220741029,0.07609635538695278,9.0629790416666669,-0.089894291666666667,-3.8000768749999998
1403638519722829568,-0.0013962634015954637,0.023736477827122883,0.07958701389094143,8.9730847499999999,-0.065377666666666667,-3.8082490833333327
1403638519727829504,0.0,0.023736477827122883,0.07819075048934597,9.0711512499999998,-0.032688833333333334,-3.8000768749999998
1403638519732829440,-0.00069813170079773186,0.020943951023931952,0.07749261878854824,8.9158792916666663,-0.065377666666666667,-3.7428714166666661
1403638519737829376,-0.0013962634015954637,0.016755160819145562,0.075398223686155036,9.1038400833333331,-0.04903325,-3.7919046666666665
1403638519742829568,-0.00069813170079773186,0.021642082724729686,0.078888882190143686,8.9403959166666649,-0.065377666666666667,-3.7837324583333327
1403638519747829504,0.0013962634015954637,0.018151424220741029,0.07749261878854824,9.0221180000000007,0.016344416666666667,-3.8000768749999998
1403638519752829440,-0.0048869219055841231,0.021642082724729686,0.07819075048934597,9.0139457916666661,-0.032688833333333334,-3.8082490833333327
1403638519757829376,-0.0013962634015954637,0.016057029118347832,0.080983277292536876,9.0384624166666665,-0.04903325,-3.8000768749999998
1403638519762829568,-0.0020943951023931952,0.019547687622336492,0.07958701389094143,9.0139457916666661,-0.10623870833333333,-3.7592158333333332
1403638519767829504,-0.0034906585039886592,0.018151424220741029,0.08307767239493008,9.0466346249999994,-0.024516625,-3.8082490833333327
1403638519772829440,-0.0013962634015954637,0.023038346126325153,0.078888882190143686,8.9730847499999999,-0.032688833333333334,-3.8327657083333331
1403638519777829376,-0.0013962634015954637,0.023736477827122883,0.080285145591739146,9.0629790416666669,-0.0081722083333333334,-3.8327657083333331
1403638519782829568,-0.0069813170079773184,0.02583087292951608,0.07819075048934597,8.9649125416666671,-0.032688833333333334,-3.7919046666666665
1403638519787829504,-0.00069813170079773186,0.014660765716752367,0.080983277292536876,8.9730847499999999,-0.04903325,-3.7837324583333327
1403638519792829440,-0.0027925268031909274,0.021642082724729686,0.07749261878854824,9.0466346249999994,-0.032688833333333334,-3.7837324583333327
1403638519797829376,-0.0020943951023931952,0.013962634015954637,0.07958701389094143,8.9976013749999986,-0.065377666666666667,-3.7919046666666665
1403638519802829568,-0.0020943951023931952,0.018151424220741029,0.075398223686155036,9.0384624166666665,-0.065377666666666667,-3.8000768749999998
1403638519807829504,-0.0020943951023931952,0.018849555921538759,0.07749261878854824,9.0221180000000007,-0.065377666666666667,-3.8164212916666664
1403638519812829440,-0.0041887902047863905,0.024434609527920613,0.07749261878854824,9.0629790416666669,-0.04903325,-3.8164212916666664
1403638519817829376,-0.0034906585039886592,0.025132741228718346,0.07958701389094143,8.9894291666666657,-0.04903325,-3.8000768749999998
1403638519822829568,-0.0048869219055841231,0.020943951023931952,0.07819075048934597,9.0057735833333332,-0.032688833333333334,-3.8000768749999998
1403638519827829504,-0.0027925268031909274,0.016057029118347832,0.07749261878854824,8.9649125416666671,-0.057205458333333334,-3.7837324583333327
1403638519832829440,-0.0062831853071795866,0.020943951023931952,0.075398223686155036,9.0629790416666669,-0.04903325,-3.8245934999999998
1403638519837829376,-0.0055850536063818549,0.019547687622336492,0.078888882190143686,8.9322237083333338,-0.040861041666666667,-3.7755602499999998
1403638519842829568,-0.0041887902047863905,0.018151424220741029,0.080983277292536876,9.1283567083333317,-0.065377666666666667,-3.8409379166666664
1403638519847829504,0.00069813170079773186,0.022340214425527419,0.080285145591739146,9.0057735833333332,-0.065377666666666667,-3.8082490833333327
1403638519852829440,0.00069813170079773186,0.021642082724729686,0.076794487087750496,9.0548068333333322,-0.040861041666666667,-3.7919046666666665
1403638519857829376,0.00069813170079773186,0.016755160819145562,0.074001960284559576,8.9322237083333338,-0.122583125,-3.7510436249999999
1403638519862829568,-0.00069813170079773186,0.0153588974175501,0.07609635538695278,9.0221180000000007,-0.081722083333333334,-3.7592158333333332
1403638519867829504,-0.0020943951023931952,0.018849555921538759,0.080285145591739146,8.9485681249999995,-0.0081722083333333334,-3.7673880416666665
1403638519872829440,0.00069813170079773186,0.013962634015954637,0.07819075048934597,9.1038400833333331,0.0,-3.8164212916666664
1403638519877829376,-0.0055850536063818549,0.020245819323134219,0.080285145591739146,9.0139457916666661,-0.057205458333333334,-3.7919046666666665
1403638519882829568,-0.0027925268031909274,0.024434609527920613,0.080983277292536876,9.1528733333333321,-0.016344416666666667,-3.8245934999999998
1403638519887829504,-0.0041887902047863905,0.028623399732707,0.080983277292536876,8.9322237083333338,-0.073549874999999987,-3.7755602499999998
1403638519892829440,0.0,0.019547687622336492,0.080285145591739146,8.9976013749999986,-0.040861041666666667,-3.7428714166666661
1403638519897829376,-0.0027925268031909274,0.022340214425527419,0.07749261878854824,9.0057735833333332,-0.040861041666666667,-3.7592158333333332
1403638519902829568,-0.0027925268031909274,0.0153588974175501,0.07819075048934597,9.0548068333333322,-0.073549874999999987,-3.7755602499999998
1403638519907829504,-0.00069813170079773186,0.020245819323134219,0.076794487087750496,9.0629790416666669,-0.032688833333333334,-3.8327657083333331
1403638519912829440,-0.0020943951023931952,0.018849555921538759,0.07958701389094143,9.0629790416666669,0.04903325,-3.7919046666666665
1403638519917829376,-0.0041887902047863905,0.025132741228718346,0.074001960284559576,9.0057735833333332,-0.04903325,-3.7919046666666665
1403638519922829568,-0.0027925268031909274,0.021642082724729686,0.07958701389094143,9.0057735833333332,-0.040861041666666667,-3.7837324583333327
1403638519927829504,-0.0020943951023931952,0.023038346126325153,0.080983277292536876,8.9158792916666663,-0.032688833333333334,-3.7346992083333332
1403638519932829440,-0.0013962634015954637,0.013962634015954637,0.078888882190143686,9.0057735833333332,-0.040861041666666667,-3.7919046666666665
1403638519937829376,-0.0013962634015954637,0.016755160819145562,0.07609635538695278,9.0139457916666661,-0.040861041666666667,-3.7837324583333327
1403638519942829568,-0.0027925268031909274,0.017453292519943295,0.074700091985357306,8.9976013749999986,-0.04903325,-3.8000768749999998
1403638519947829504,0.00069813170079773186,0.020245819323134219,0.076794487087750496,9.0548068333333322,-0.040861041666666667,-3.8245934999999998
1403638519952829440,0.00069813170079773186,0.014660765716752367,0.078888882190143686,8.9894291666666657,-0.089894291666666667,-3.7755602499999998
1403638519957829376,-0.0020943951023931952,0.024434609527920613,0.07609635538695278,9.0874956666666655,-0.04903325,-3.7919046666666665
1403638519962829568,0.00069813170079773186,0.021642082724729686,0.076794487087750496,8.9649125416666671,-0.065377666666666667,-3.7919046666666665
1403638519967829504,-0.0034906585039886592,0.023736477827122883,0.07609635538695278,8.9894291666666657,-0.032688833333333334,-3.7592158333333332
1403638519972829440,0.00069813170079773186,0.019547687622336492,0.078888882190143686,8.9485681249999995,-0.024516625,-3.8082490833333327
1403638519977829376,0.0,0.020245819323134219,0.080285145591739146,9.1120122916666659,-0.057205458333333334,-3.8164212916666664
1403638519982829568,-0.0013962634015954637,0.020245819323134219,0.080285145591739146,8.9649125416666671,-0.081722083333333334,-3.8245934999999998
1403638519987829504,0.00069813170079773186,0.019547687622336492,0.07749261878854824,9.0956678750000002,-0.065377666666666667,-3.8409379166666664
1403638519992829440,-0.0020943951023931952,0.019547687622336492,0.07819075048934597,8.9077070833333334,-0.073549874999999987,-3.7673880416666665
1403638519997829376,0.00069813170079773186,0.022340214425527419,0.078888882190143686,9.0221180000000007,0.0081722083333333334,-3.8082490833333327
1403638520002829568,-0.0020943951023931952,0.018151424220741029,0.076794487087750496,9.0139457916666661,-0.032688833333333334,-3.8082490833333327
1403638520007829504,-0.0027925268031909274,0.024434609527920613,0.078888882190143686,9.0874956666666655,0.032688833333333334,-3.8409379166666664
1403638520012829440,-0.0020943951023931952,0.025132741228718346,0.08307767239493008,8.9403959166666649,-0.040861041666666667,-3.8000768749999998
1403638520017829376,-0.0034906585039886592,0.018849555921538759,0.078888882190143686,9.0711512499999998,-0.024516625,-3.8000768749999998
1403638520022829568,-0.0048869219055841231,0.017453292519943295,0.080285145591739146,8.9322237083333338,-0.032688833333333334,-3.7673880416666665
1403638520027829504,0.0,0.016755160819145562,0.078888882190143686,9.0874956666666655,-0.040861041666666667,-3.8082490833333327
1403638520032829440,-0.0041887902047863905,0.020245819323134219,0.07609635538695278,8.9730847499999999,-0.073549874999999987,-3.7510436249999999
1403638520037829376,-0.0020943951023931952,0.017453292519943295,0.074001960284559576,9.1038400833333331,-0.032688833333333334,-3.8245934999999998
1403638520042829568,0.0,0.024434609527920613,0.074001960284559576,9.0629790416666669,-0.057205458333333334,-3.8327657083333331
1403638520047829504,-0.0013962634015954637,0.023736477827122883,0.074700091985357306,9.0711512499999998,0.0081722083333333334,-3.8082490833333327
1403638520052829440,-0.0013962634015954637,0.023736477827122883,0.080983277292536876,8.9567403333333324,-0.032688833333333334,-3.7673880416666665
1403638520057829376,-0.0034906585039886592,0.019547687622336492,0.080285145591739146,9.0057735833333332,-0.04903325,-3.7755602499999998
1403638520062829568,-0.0069813170079773184,0.023736477827122883,0.076794487087750496,8.9649125416666671,-0.032688833333333334,-3.8000768749999998
1403638520067829504,-0.0048869219055841231,0.014660765716752367,0.078888882190143686,9.0221180000000007,-0.073549874999999987,-3.8164212916666664
1403638520072829440,-0.0041887902047863905,0.021642082724729686,0.080983277292536876,9.1201845000000006,-0.040861041666666667,-3.8409379166666664
1403638520077829376,0.0,0.023038346126325153,0.08307767239493008,9.0466346249999994,0.0,-3.8082490833333327
1403638520082829568,-0.0020943951023931952,0.02652900463031381,0.08168140899333462,8.9812569583333328,-0.040861041666666667,-3.7919046666666665
1403638520087829504,0.0,0.020943951023931952,0.076794487087750496,8.9812569583333328,-0.0081722083333333334,-3.7592158333333332
1403638520092829440,-0.0020943951023931952,0.018849555921538759,0.074001960284559576,8.9403959166666649,-0.016344416666666667,-3.7673880416666665
1403638520097829376,-0.0027925268031909274,0.011868238913561441,0.07749261878854824,9.0302902083333318,-0.016344416666666667,-3.8082490833333327
1403638520102829568,-0.0048869219055841231,0.018151424220741029,0.07609635538695278,9.1610455416666667,-0.040861041666666667,-3.8000768749999998
1403638520107829504,-0.0020943951023931952,0.018151424220741029,0.07819075048934597,9.0711512499999998,-0.081722083333333334,-3.8245934999999998
1403638520112829440,-0.0027925268031909274,0.025132741228718346,0.07749261878854824,9.0793234583333327,-0.065377666666666667,-3.7919046666666665
1403638520117829376,-0.0020943951023931952,0.021642082724729686,0.07958701389094143,8.8750182500000001,-0.057205458333333334,-3.7592158333333332
1403638520122829568,0.0034906585039886592,0.023736477827122883,0.078888882190143686,9.0139457916666661,0.0,-3.7755602499999998
1403638520127829504,-0.00069813170079773186,0.021642082724729686,0.080983277292536876,8.9567403333333324,-0.032688833333333334,-3.8000768749999998
1403638520132829440,0.0,0.017453292519943295,0.074001960284559576,9.1038400833333331,-0.04903325,-3.8245934999999998
1403638520137829376,-0.0020943951023931952,0.018151424220741029,0.08168140899333462,8.9976013749999986,-0.040861041666666667,-3.8245934999999998
1403638520142829568,-0.0034906585039886592,0.018151424220741029,0.07819075048934597,9.0629790416666669,-0.0081722083333333334,-3.8164212916666664
1403638520147829504,-0.0013962634015954637,0.018849555921538759,0.080285145591739146,8.9322237083333338,-0.098066500000000001,-3.7837324583333327
1403638520152829440,-0.0020943951023931952,0.021642082724729686,0.07609635538695278,9.1038400833333331,-0.040861041666666667,-3.8164212916666664
1403638520157829376,0.0013962634015954637,0.022340214425527419,0.080285145591739146,8.9240514999999991,-0.073549874999999987,-3.8164212916666664
1403638520162829568,0.0,0.019547687622336492,0.07749261878854824,9.0874956666666655,-0.040861041666666667,-3.7837324583333327
1403638520167829504,-0.0048869219055841231,0.023736477827122883,0.07819075048934597,9.0221180000000007,-0.032688833333333334,-3.8082490833333327
1403638520172829440,-0.0055850536063818549,0.016057029118347832,0.07609635538695278,9.0466346249999994,-0.0081722083333333334,-3.8000768749999998
1403638520177829376,-0.0076794487087750501,0.016755160819145562,0.076794487087750496,8.9322237083333338,-0.04903325,-3.7919046666666665
1403638520182829568,-0.0062831853071795866,0.016755160819145562,0.08168140899333462,9.0711512499999998,-0.0081722083333333334,-3.7919046666666665
1403638520187829504,-0.0041887902047863905,0.022340214425527419,0.07819075048934597,8.9812569583333328,-0.098066500000000001,-3.7837324583333327
1403638520192829440,-0.0020943951023931952,0.018849555921538759,0.07609635538695278,9.0793234583333327,-0.04903325,-3.8082490833333327
1403638520197829376,0.00069813170079773186,0.025132741228718346,0.07819075048934597,8.9567403333333324,-0.057205458333333334,-3.8082490833333327
1403638520202829568,0.0013962634015954637,0.021642082724729686,0.075398223686155036,9.0548068333333322,-0.032688833333333334,-3.8000768749999998
1403638520207829504,-0.0013962634015954637,0.024434609527920613,0.07749261878854824,8.9649125416666671,-0.032688833333333334,-3.8082490833333327
1403638520212829440,-0.0027925268031909274,0.016057029118347832,0.07749261878854824,9.0057735833333332,-0.040861041666666667,-3.7919046666666665
1403638520217829376,-0.00069813170079773186,0.020943951023931952,0.075398223686155036,9.0629790416666669,-0.0081722083333333334,-3.7755602499999998
1403638520222829568,-0.0020943951023931952,0.016755160819145562,0.07819075048934597,9.0384624166666665,-0.040861041666666667,-3.7919046666666665
1403638520227829504,-0.0034906585039886592,0.018849555921538759,0.07609635538695278,9.0548068333333322,-0.040861041666666667,-3.8082490833333327
1403638520232829440,-0.0027925268031909274,0.016755160819145562,0.07609635538695278,9.0466346249999994,-0.081722083333333334,-3.8164212916666664
1403638520237829376,-0.0055850536063818549,0.023038346126325153,0.075398223686155036,9.0548068333333322,-0.0081722083333333334,-3.8000768749999998
1403638520242829568,-0.0034906585039886592,0.020943951023931952,0.08168140899333462,9.0302902083333318,-0.016344416666666667,-3.7919046666666665
1403638520247829504,0.0013962634015954637,0.02652900463031381,0.078888882190143686,8.9976013749999986,-0.016344416666666667,-3.7837324583333327
1403638520252829440,0.0020943951023931952,0.017453292519943295,0.080285145591739146,8.9322237083333338,-0.032688833333333334,-3.7755602499999998
1403638520257829376,-0.00069813170079773186,0.018151424220741029,0.07609635538695278,9.0793234583333327,0.016344416666666667,-3.7837324583333327
1403638520262829568,-0.0027925268031909274,0.019547687622336492,0.07609635538695278,9.0629790416666669,-0.040861041666666667,-3.7919046666666665
1403638520267829504,-0.0034906585039886592,0.018849555921538759,0.074700091985357306,9.1365289166666663,0.016344416666666667,-3.8245934999999998
1403638520272829440,-0.0041887902047863905,0.021642082724729686,0.07958701389094143,9.0139457916666661,-0.040861041666666667,-3.8082490833333327
1403638520277829376,-0.0034906585039886592,0.020943951023931952,0.07749261878854824,9.0139457916666661,-0.0081722083333333334,-3.8082490833333327
1403638520282829568,0.0,0.024434609527920613,0.08168140899333462,8.9403959166666649,-0.016344416666666667,-3.7673880416666665
1403638520287829504,-0.00069813170079773186,0.023736477827122883,0.075398223686155036,9.0302902083333318,0.0081722083333333334,-3.8000768749999998
1403638520292829440,0.00069813170079773186,0.016755160819145562,0.074001960284559576,8.9403959166666649,-0.032688833333333334,-3.8000768749999998
1403638520297829376,-0.0013962634015954637,0.016057029118347832,0.074001960284559576,9.1120122916666659,-0.024516625,-3.8327657083333331
1403638520302829568,-0.0027925268031909274,0.024434609527920613,0.076794487087750496,8.9158792916666663,-0.089894291666666667,-3.7837324583333327
1403638520307829504,-0.0034906585039886592,0.018151424220741029,0.073303828583761846,9.0466346249999994,-0.04903325,-3.7919046666666665
1403638520312829440,-0.00069813170079773186,0.021642082724729686,0.07609635538695278,8.9894291666666657,-0.073549874999999987,-3.8164212916666664
1403638520317829376,0.0,0.023038346126325153,0.076794487087750496,9.0384624166666665,-0.016344416666666667,-3.7919046666666665
1403638520322829568,-0.00069813170079773186,0.023038346126325153,0.07819075048934597,8.9567403333333324,-0.081722083333333334,-3.7673880416666665
1403638520327829504,-0.0013962634015954637,0.023736477827122883,0.074700091985357306,9.0793234583333327,-0.024516625,-3.7919046666666665
1403638520332829440,-0.0034906585039886592,0.025132741228718346,0.07819075048934597,8.9894291666666657,-0.040861041666666667,-3.7673880416666665
1403638520337829376,-0.0027925268031909274,0.019547687622336492,0.084473935796525554,9.0793234583333327,-0.057205458333333334,-3.8000768749999998
1403638520342829568,-0.00069813170079773186,0.023038346126325153,0.08377580409572781,9.0384624166666665,-0.024516625,-3.7837324583333327
1403638520347829504,-0.0020943951023931952,0.021642082724729686,0.085172067497323284,9.0302902083333318,-0.040861041666666667,-3.8000768749999998
1403638520352829440,0.0,0.022340214425527419,0.08237954069413235,8.9812569583333328,-0.057205458333333334,-3.7755602499999998
1403638520357829376,0.0027925268031909274,0.020245819323134219,0.07609635538695278,9.0629790416666669,-0.0081722083333333334,-3.8082490833333327
1403638520362829568,-0.0020943951023931952,0.020245819323134219,0.075398223686155036,9.0221180000000007,0.0,-3.8082490833333327
1403638520367829504,-0.0013962634015954637,0.016755160819145562,0.07958701389094143,9.0139457916666661,-0.04903325,-3.7919046666666665
1403638520372829440,-0.0020943951023931952,0.018151424220741029,0.078888882190143686,8.9812569583333328,-0.057205458333333334,-3.7919046666666665
1403638520377829376,-0.0020943951023931952,0.017453292519943295,0.08168140899333462,9.0139457916666661,-0.04903325,-3.7837324583333327
1403638520382829568,-0.0034906585039886592,0.023736477827122883,0.073303828583761846,9.0139457916666661,-0.032688833333333334,-3.8082490833333327
1403638520387829504,-0.0013962634015954637,0.016755160819145562,0.074700091985357306,9.0139457916666661,-0.024516625,-3.7919046666666665
1403638520392829440,-0.0013962634015954637,0.024434609527920613,0.074001960284559576,9.1038400833333331,0.032688833333333334,-3.8164212916666664
1403638520397829376,-0.0020943951023931952,0.022340214425527419,0.07749261878854824,8.9812569583333328,-0.0081722083333333334,-3.7755602499999998
1403638520402829568,-0.0041887902047863905,0.020245819323134219,0.073303828583761846,9.0466346249999994,-0.098066500000000001,-3.7346992083333332
1403638520407829504,-0.0041887902047863905,0.021642082724729686,0.07749261878854824,8.9730847499999999,-0.057205458333333334,-3.7919046666666665
1403638520412829440,-0.0013962634015954637,0.023038346126325153,0.074700091985357306,9.0221180000000007,-0.040861041666666667,-3.8164212916666664
1403638520417829376,-0.0020943951023931952,0.018849555921538759,0.07958701389094143,9.0057735833333332,-0.10623870833333333,-3.7837324583333327
1403638520422829568,-0.00069813170079773186,0.023736477827122883,0.078888882190143686,9.1283567083333317,-0.073549874999999987,-3.8164212916666664
1403638520427829504,-0.0020943951023931952,0.020943951023931952,0.07958701389094143,8.9485681249999995,-0.13075533333333333,-3.7510436249999999
1403638520432829440,0.0,0.020245819323134219,0.07819075048934597,9.0384624166666665,-0.04903325,-3.7919046666666665
1403638520437829376,0.00069813170079773186,0.016057029118347832,0.07749261878854824,8.883190458333333,-0.073549874999999987,-3.7837324583333327
1403638520442829568,-0.00069813170079773186,0.017453292519943295,0.078888882190143686,9.1201845000000006,-0.032688833333333334,-3.8327657083333331
1403638520447829504,-0.0027925268031909274,0.023736477827122883,0.085172067497323284,8.9976013749999986,-0.032688833333333334,-3.8164212916666664
1403638520452829440,-0.0041887902047863905,0.023736477827122883,0.08377580409572781,9.1447011249999992,0.024516625,-3.8245934999999998
1403638520457829376,-0.0041887902047863905,0.023736477827122883,0.08168140899333462,9.0057735833333332,-0.040861041666666667,-3.7755602499999998
1403638520462829568,-0.0027925268031909274,0.022340214425527419,0.07958701389094143,8.9894291666666657,-0.024516625,-3.7837324583333327
1403638520467829504,-0.0013962634015954637,0.018849555921538759,0.08168140899333462,8.8995348749999987,-0.040861041666666667,-3.7673880416666665
1403638520472829440,-0.0020943951023931952,0.017453292519943295,0.07958701389094143,9.0956678750000002,-0.040861041666666667,-3.8245934999999998
1403638520477829376,0.0,0.023038346126325153,0.07958701389094143,9.0302902083333318,-0.016344416666666667,-3.8409379166666664
1403638520482829568,-0.0048869219055841231,0.018151424220741029,0.073303828583761846,9.1201845000000006,-0.057205458333333334,-3.8164212916666664
1403638520487829504,-0.0034906585039886592,0.018849555921538759,0.07609635538695278,8.9403959166666649,-0.04903325,-3.7673880416666665
1403638520492829440,-0.0027925268031909274,0.017453292519943295,0.076794487087750496,8.9894291666666657,-0.016344416666666667,-3.7755602499999998
1403638520497829376,-0.0048869219055841231,0.023736477827122883,0.07819075048934597,8.9567403333333324,0.0081722083333333334,-3.7837324583333327
1403638520502829568,-0.0048869219055841231,0.014660765716752367,0.07819075048934597,8.9894291666666657,-0.04903325,-3.7919046666666665
1403638520507829504,-0.0055850536063818549,0.020245819323134219,0.07749261878854824,9.0057735833333332,-0.089894291666666667,-3.7755602499999998
1403638520512829440,-0.0034906585039886592,0.020245819323134219,0.076794487087750496,9.0139457916666661,-0.057205458333333334,-3.8000768749999998
1403638520517829376,-0.00069813170079773186,0.023038346126325153,0.078888882190143686,9.0139457916666661,-0.081722083333333334,-3.8164212916666664
1403638520522829568,-0.0027925268031909274,0.023038346126325153,0.080983277292536876,9.0466346249999994,-0.057205458333333334,-3.7919046666666665
1403638520527829504,-0.0034906585039886592,0.024434609527920613,0.080983277292536876,8.9894291666666657,-0.032688833333333334,-3.7919046666666665
1403638520532829440,0.0027925268031909274,0.016057029118347832,0.08237954069413235,8.9976013749999986,-0.057205458333333334,-3.7837324583333327
1403638520537829376,0.0,0.020245819323134219,0.07819075048934597,9.0629790416666669,0.0,-3.8000768749999998
1403638520542829568,-0.0048869219055841231,0.018151424220741029,0.07819075048934597,8.9894291666666657,-0.032688833333333334,-3.8245934999999998
1403638520547829504,-0.0041887902047863905,0.023736477827122883,0.080285145591739146,9.0711512499999998,-0.024516625,-3.8082490833333327
1403638520552829440,0.0,0.020245819323134219,0.08307767239493008,8.9077070833333334,-0.065377666666666667,-3.7346992083333332
1403638520557829376,-0.0027925268031909274,0.023736477827122883,0.08168140899333462,9.1120122916666659,-0.024516625,-3.8164212916666664
1403638520562829568,-0.0027925268031909274,0.020943951023931952,0.076794487087750496,9.0057735833333332,-0.089894291666666667,-3.7755602499999998
1403638520567829504,-0.0013962634015954637,0.022340214425527419,0.073303828583761846,9.0302902083333318,-0.04903325,-3.7919046666666665
1403638520572829440,-0.0048869219055841231,0.013962634015954637,0.08168140899333462,8.9240514999999991,-0.016344416666666667,-3.7755602499999998
1403638520577829376,-0.0048869219055841231,0.019547687622336492,0.07609635538695278,9.0956678750000002,0.04903325,-3.8164212916666664
1403638520582829568,-0.0048869219055841231,0.020245819323134219,0.078888882190143686,9.0139457916666661,-0.032688833333333334,-3.7919046666666665
1403638520587829504,-0.0034906585039886592,0.021642082724729686,0.07749261878854824,9.1201845000000006,-0.040861041666666667,-3.8491101249999997
1403638520592829440,-0.0027925268031909274,0.023038346126325153,0.080983277292536876,8.9812569583333328,-0.098066500000000001,-3.7837324583333327
1403638520597829376,-0.0041887902047863905,0.021642082724729686,0.078888882190143686,9.0139457916666661,-0.065377666666666667,-3.7919046666666665
1403638520602829568,0.00069813170079773186,0.018849555921538759,0.07749261878854824,8.9077070833333334,-0.13075533333333333,-3.7346992083333332
1403638520607829504,-0.0020943951023931952,0.018151424220741029,0.074001960284559576,9.0711512499999998,-0.04903325,-3.7837324583333327
1403638520612829440,-0.0013962634015954637,0.018151424220741029,0.076794487087750496,8.9894291666666657,-0.057205458333333334,-3.7919046666666665
1403638520617829376,-0.0013962634015954637,0.017453292519943295,0.07749261878854824,9.1201845000000006,0.04903325,-3.8164212916666664
1403638520622829568,-0.0048869219055841231,0.025132741228718346,0.076794487087750496,8.9567403333333324,-0.016344416666666667,-3.7755602499999998
1403638520627829504,-0.0027925268031909274,0.020943951023931952,0.080285145591739146,9.0221180000000007,0.0,-3.7919046666666665
1403638520632829440,-0.0034906585039886592,0.018849555921538759,0.080285145591739146,8.9322237083333338,-0.073549874999999987,-3.7837324583333327
1403638520637829376,-0.0041887902047863905,0.014660765716752367,0.075398223686155036,8.9567403333333324,-0.065377666666666667,-3.8000768749999998
1403638520642829568,-0.00069813170079773186,0.018151424220741029,0.080983277292536876,8.9649125416666671,-0.098066500000000001,-3.7919046666666665
1403638520647829504,0.0041887902047863905,0.019547687622336492,0.07609635538695278,9.0548068333333322,-0.032688833333333334,-3.8164212916666664
1403638520652829440,0.0,0.019547687622336492,0.075398223686155036,9.0221180000000007,-0.065377666666666667,-3.7919046666666665
1403638520657829376,-0.0020943951023931952,0.016755160819145562,0.07958701389094143,9.0384624166666665,-0.065377666666666667,-3.7755602499999998
1403638520662829568,-0.0013962634015954637,0.020245819323134219,0.07749261878854824,9.0221180000000007,-0.032688833333333334,-3.7673880416666665
1403638520667829504,-0.00069813170079773186,0.019547687622336492,0.076794487087750496,8.9403959166666649,-0.040861041666666667,-3.7755602499999998
1403638520672829440,-0.0055850536063818549,0.023736477827122883,0.07609635538695278,8.9976013749999986,-0.040861041666666667,-3.8164212916666664
1403638520677829376,-0.0062831853071795866,0.016755160819145562,0.07749261878854824,8.9730847499999999,-0.024516625,-3.7837324583333327
1403638520682829568,-0.0020943951023931952,0.018849555921538759,0.07609635538695278,9.0711512499999998,-0.04903325,-3.8327657083333331
1403638520687829504,-0.00069813170079773186,0.022340214425527419,0.078888882190143686,9.0139457916666661,-0.040861041666666667,-3.8327657083333331
1403638520692829440,-0.00069813170079773186,0.022340214425527419,0.078888882190143686,9.0466346249999994,-0.024516625,-3.8164212916666664
1403638520697829376,0.0020943951023931952,0.019547687622336492,0.08307767239493008,8.9567403333333324,-0.032688833333333334,-3.7755602499999998
1403638520702829568,0.0013962634015954637,0.018849555921538759,0.07819075048934597,8.9812569583333328,-0.0081722083333333334,-3.7673880416666665
1403638520707829504,-0.0034906585039886592,0.016057029118347832,0.078888882190143686,8.9485681249999995,0.0,-3.7510436249999999
1403638520712829440,-0.0034906585039886592,0.018151424220741029,0.076794487087750496,9.0548068333333322,-0.016344416666666667,-3.7919046666666665
1403638520717829376,-0.0020943951023931952,0.018151424220741029,0.07958701389094143,8.9567403333333324,-0.065377666666666667,-3.8000768749999998
1403638520722829568,-0.0034906585039886592,0.020245819323134219,0.07819075048934597,9.1610455416666667,0.0,-3.8327657083333331
1403638520727829504,-0.0041887902047863905,0.020943951023931952,0.07958701389094143,8.9976013749999986,-0.098066500000000001,-3.7592158333333332
1403638520732829440,-0.0027925268031909274,0.021642082724729686,0.07749261878854824,9.0874956666666655,-0.040861041666666667,-3.7837324583333327
1403638520737829376,0.0027925268031909274,0.017453292519943295,0.07749261878854824,8.9730847499999999,-0.016344416666666667,-3.7346992083333332
1403638520742829568,-0.00069813170079773186,0.016755160819145562,0.076794487087750496,9.0793234583333327,0.032688833333333334,-3.8082490833333327
1403638520747829504,0.0,0.023038346126325153,0.07958701389094143,8.9976013749999986,-0.040861041666666667,-3.8245934999999998
1403638520752829440,-0.0041887902047863905,0.024434609527920613,0.07749261878854824,9.1201845000000006,-0.016344416666666667,-3.8409379166666664
1403638520757829376,-0.0062831853071795866,0.020943951023931952,0.078888882190143686,8.9322237083333338,-0.057205458333333334,-3.8082490833333327
1403638520762829568,-0.0048869219055841231,0.017453292519943295,0.075398223686155036,9.0466346249999994,-0.04903325,-3.8245934999999998
1403638520767829504,-0.0041887902047863905,0.021642082724729686,0.074001960284559576,8.8995348749999987,-0.081722083333333334,-3.7592158333333332
1403638520772829440,-0.0034906585039886592,0.014660765716752367,0.07819075048934597,9.0057735833333332,-0.04903325,-3.7919046666666665
1403638520777829376,-0.00069813170079773186,0.018151424220741029,0.07749261878854824,9.0548068333333322,-0.04903325,-3.8164212916666664
1403638520782829568,0.0020943951023931952,0.020245819323134219,0.076794487087750496,9.0793234583333327,-0.032688833333333334,-3.8491101249999997
1403638520787829504,-0.0013962634015954637,0.024434609527920613,0.07958701389094143,9.0221180000000007,0.0,-3.8000768749999998
1403638520792829440,-0.0034906585039886592,0.022340214425527419,0.080285145591739146,9.0057735833333332,-0.040861041666666667,-3.7919046666666665
1403638520797829376,-0.0027925268031909274,0.020943951023931952,0.080983277292536876,8.8750182500000001,-0.057205458333333334,-3.7592158333333332
1403638520802829568,-0.00069813170079773186,0.016057029118347832,0.08377580409572781,8.9730847499999999,-0.065377666666666667,-3.7592158333333332
1403638520807829504,-0.0020943951023931952,0.022340214425527419,0.080983277292536876,9.0139457916666661,-0.032688833333333334,-3.8164212916666664
1403638520812829440,-0.0013962634015954637,0.018849555921538759,0.078888882190143686,9.0384624166666665,-0.040861041666666667,-3.8245934999999998
1403638520817829376,-0.0034906585039886592,0.020245819323134219,0.075398223686155036,9.1283567083333317,-0.032688833333333334,-3.8327657083333331
1403638520822829568,0.0,0.016057029118347832,0.08307767239493008,8.9812569583333328,-0.04903325,-3.7919046666666665
1403638520827829504,-0.00069813170079773186,0.023038346126325153,0.07819075048934597,9.0139457916666661,-0.016344416666666667,-3.7919046666666665
1403638520832829440,-0.00069813170079773186,0.024434609527920613,0.075398223686155036,8.9730847499999999,-0.0081722083333333334,-3.7919046666666665
1403638520837829376,-0.0034906585039886592,0.018849555921538759,0.075398223686155036,9.0057735833333332,0.0081722083333333334,-3.7837324583333327
1403638520842829568,-0.0034906585039886592,0.013264502315156905,0.074700091985357306,9.0221180000000007,-0.016344416666666667,-3.7919046666666665
1403638520847829504,-0.0041887902047863905,0.019547687622336492,0.074001960284559576,9.0956678750000002,0.0081722083333333334,-3.7919046666666665
1403638520852829440,-0.0027925268031909274,0.022340214425527419,0.073303828583761846,8.9976013749999986,-0.089894291666666667,-3.7673880416666665
1403638520857829376,0.0,0.02722713633111154,0.074001960284559576,9.0384624166666665,-0.073549874999999987,-3.8245934999999998
1403638520862829568,0.0013962634015954637,0.029321531433504733,0.07958701389094143,8.883190458333333,-0.032688833333333334,-3.7592158333333332
1403638520867829504,0.0013962634015954637,0.023038346126325153,0.07609635538695278,9.0057735833333332,-0.032688833333333334,-3.7919046666666665
1403638520872829440,-0.0020943951023931952,0.022340214425527419,0.073303828583761846,8.8913626666666659,-0.016344416666666667,-3.7592158333333332
1403638520877829376,-0.0020943951023931952,0.019547687622336492,0.073303828583761846,9.0548068333333322,0.057205458333333334,-3.8491101249999997
1403638520882829568,0.00069813170079773186,0.021642082724729686,0.074001960284559576,8.9730847499999999,-0.04903325,-3.8327657083333331
1403638520887829504,-0.00069813170079773186,0.024434609527920613,0.075398223686155036,9.1038400833333331,-0.024516625,-3.8245934999999998
1403638520892829440,-0.00069813170079773186,0.02652900463031381,0.07958701389094143,8.9730847499999999,-0.065377666666666667,-3.7919046666666665
1403638520897829376,-0.0013962634015954637,0.022340214425527419,0.07749261878854824,9.0466346249999994,-0.065377666666666667,-3.8000768749999998
1403638520902829568,0.00069813170079773186,0.020245819323134219,0.07609635538695278,8.8750182500000001,-0.065377666666666667,-3.7837324583333327
1403638520907829504,-0.0013962634015954637,0.014660765716752367,0.07609635538695278,9.0711512499999998,-0.0081722083333333334,-3.8000768749999998
1403638520912829440,0.0,0.019547687622336492,0.075398223686155036,9.0221180000000007,-0.032688833333333334,-3.8000768749999998
1403638520917829376,-0.00069813170079773186,0.022340214425527419,0.071907565182166372,9.1038400833333331,-0.016344416666666667,-3.8409379166666664
1403638520922829568,-0.0020943951023931952,0.024434609527920613,0.07609635538695278,9.0466346249999994,-0.016344416666666667,-3.7837324583333327
1403638520927829504,-0.0020943951023931952,0.022340214425527419,0.07609635538695278,9.0874956666666655,-0.016344416666666667,-3.8000768749999998
1403638520932829440,-0.0020943951023931952,0.025132741228718346,0.07609635538695278,9.0384624166666665,-0.081722083333333334,-3.7592158333333332
1403638520937829376,-0.0041887902047863905,0.014660765716752367,0.075398223686155036,9.1365289166666663,-0.024516625,-3.7755602499999998
1403638520942829568,-0.0013962634015954637,0.020245819323134219,0.07609635538695278,9.0302902083333318,-0.065377666666666667,-3.8164212916666664
1403638520947829504,-0.0013962634015954637,0.018151424220741029,0.078888882190143686,9.0466346249999994,-0.032688833333333334,-3.7837324583333327
1403638520952829440,0.0020943951023931952,0.02652900463031381,0.080285145591739146,9.0874956666666655,-0.0081722083333333334,-3.7837324583333327
1403638520957829376,0.0041887902047863905,0.021642082724729686,0.08377580409572781,9.0302902083333318,0.0081722083333333334,-3.8164212916666664
1403638520962829568,0.0027925268031909274,0.018151424220741029,0.07958701389094143,9.0139457916666661,0.0081722083333333334,-3.7755602499999998
1403638520967829504,0.0027925268031909274,0.017453292519943295,0.08237954069413235,9.0057735833333332,-0.016344416666666667,-3.7837324583333327
1403638520972829440,-0.0034906585039886592,0.019547687622336492,0.07609635538695278,9.0221180000000007,-0.016344416666666667,-3.7673880416666665
1403638520977829376,-0.0020943951023931952,0.021642082724729686,0.078888882190143686,8.9730847499999999,-0.032688833333333334,-3.7755602499999998
1403638520982829568,-0.0020943951023931952,0.021642082724729686,0.07749261878854824,9.0221180000000007,-0.040861041666666667,-3.8164212916666664
1403638520987829504,-0.0020943951023931952,0.020943951023931952,0.07749261878854824,9.0221180000000007,-0.089894291666666667,-3.7755602499999998
1403638520992829440,-0.0020943951023931952,0.023038346126325153,0.073303828583761846,9.0548068333333322,-0.057205458333333334,-3.7919046666666665
1403638520997829376,0.00069813170079773186,0.021642082724729686,0.075398223686155036,8.9567403333333324,-0.04903325,-3.7919046666666665
1403638521002829568,-0.0013962634015954637,0.021642082724729686,0.071907565182166372,9.0629790416666669,0.0,-3.8082490833333327
1403638521007829504,-0.0048869219055841231,0.023736477827122883,0.075398223686155036,8.9158792916666663,-0.032688833333333334,-3.7510436249999999
1403638521012829440,-0.0069813170079773184,0.021642082724729686,0.07609635538695278,9.0466346249999994,0.0081722083333333334,-3.8327657083333331
1403638521017829376,-0.0041887902047863905,0.023038346126325153,0.076794487087750496,8.9485681249999995,-0.11441091666666667,-3.8000768749999998
1403638521022829568,-0.0041887902047863905,0.022340214425527419,0.075398223686155036,9.0302902083333318,-0.098066500000000001,-3.8082490833333327
1403638521027829504,-0.0027925268031909274,0.023038346126325153,0.07749261878854824,8.9567403333333324,-0.10623870833333333,-3.7755602499999998
1403638521032829440,-0.0027925268031909274,0.019547687622336492,0.07958701389094143,9.0548068333333322,-0.098066500000000001,-3.7919046666666665
1403638521037829376,0.0020943951023931952,0.018151424220741029,0.07819075048934597,8.9240514999999991,-0.098066500000000001,-3.8082490833333327
1403638521042829568,0.0041887902047863905,0.018849555921538759,0.076794487087750496,9.1038400833333331,0.016344416666666667,-3.857282333333333
1403638521047829504,0.0027925268031909274,0.018849555921538759,0.080285145591739146,8.9567403333333324,-0.040861041666666667,-3.857282333333333
1403638521052829440,0.0034906585039886592,0.023736477827122883,0.084473935796525554,9.1201845000000006,0.016344416666666667,-3.8491101249999997
1403638521057829376,-0.0020943951023931952,0.02583087292951608,0.07958701389094143,8.9976013749999986,-0.016344416666666667,-3.8082490833333327
1403638521062829568,-0.00069813170079773186,0.018849555921538759,0.08237954069413235,9.1201845000000006,-0.016344416666666667,-3.8409379166666664
1403638521067829504,-0.0027925268031909274,0.020245819323134219,0.076794487087750496,9.0548068333333322,-0.016344416666666667,-3.8000768749999998
1403638521072829440,-0.0020943951023931952,0.013962634015954637,0.07819075048934597,9.0302902083333318,-0.032688833333333334,-3.7755602499999998
1403638521077829376,-0.0013962634015954637,0.018849555921538759,0.075398223686155036,9.1038400833333331,-0.024516625,-3.7755602499999998
1403638521082829568,-0.0013962634015954637,0.0153588974175501,0.07749261878854824,9.1283567083333317,-0.040861041666666667,-3.7837324583333327
1403638521087829504,0.00069813170079773186,0.022340214425527419,0.076794487087750496,9.1447011249999992,-0.0081722083333333334,-3.8164212916666664
1403638521092829440,-0.0020943951023931952,0.021642082724729686,0.07749261878854824,9.0384624166666665,-0.016344416666666667,-3.8000768749999998
1403638521097829376,-0.0034906585039886592,0.023038346126325153,0.07609635538695278,9.0139457916666661,0.0081722083333333334,-3.7755602499999998
1403638521102829568,-0.0041887902047863905,0.018151424220741029,0.07749261878854824,9.0384624166666665,0.065377666666666667,-3.7510436249999999
1403638521107829504,-0.0062831853071795866,0.022340214425527419,0.07609635538695278,9.0057735833333332,0.0081722083333333334,-3.7592158333333332
1403638521112829440,-0.0090757121103705145,0.013962634015954637,0.085172067497323284,9.0711512499999998,-0.065377666666666667,-3.7755602499999998
1403638521117829376,-0.014660765716752367,0.020943951023931952,0.087964594300514204,9.2182509999999986,-0.065377666666666667,-3.8164212916666664
1403638521122829568,-0.016057029118347832,0.024434609527920613,0.092153384505300612,8.9730847499999999,-0.26151066666666667,-3.7428714166666661
1403638521127829504,-0.010471975511965976,0.021642082724729686,0.098436569812480182,8.8586738333333326,-0.30237170833333332,-3.7101825833333333
1403638521132829440,0.0055850536063818549,0.022340214425527419,0.114493598930828,8.9403959166666649,-0.27785508333333331,-3.7837324583333327
1403638521137829376,0.019547687622336492,0.030019663134302467,0.11379546723003027,9.2182509999999986,-0.10623870833333333,-3.8981433750000001
1403638521142829568,0.020943951023931952,0.034906585039886591,0.094945911308491532,9.1610455416666667,0.040861041666666667,-3.9144877916666663
1403638521147829504,0.011868238913561441,0.034208453339088861,0.071209433481368656,9.0221180000000007,0.17161637500000002,-3.8491101249999997
1403638521152829440,0.0013962634015954637,0.02583087292951608,0.067718774977379978,8.6135075833333321,0.196133,-3.7837324583333327
1403638521157829376,-0.00069813170079773186,0.012566370614359173,0.080983277292536876,8.8014683749999989,0.26968287499999999,-3.8409379166666664
1403638521162829568,-0.0041887902047863905,0.011868238913561441,0.097040306410884708,8.834157208333334,0.28602729166666663,-3.8245934999999998
1403638521167829504,-0.01117010721276371,0.010471975511965976,0.080285145591739146,9.0548068333333322,0.25333845833333329,-3.8245934999999998
1403638521172829440,-0.022340214425527419,0.0076794487087750501,0.055152404363020817,9.0466346249999994,-0.040861041666666667,-3.7837324583333327
1403638521177829376,-0.020943951023931952,0.0069813170079773184,0.037699111843077518,9.193734375,-0.18796079166666665,-3.7837324583333327
1403638521182829568,-0.0069813170079773184,0.017453292519943295,0.043982297150257102,9.0466346249999994,-0.24516625,-3.7919046666666665
1403638521187829504,0.0062831853071795866,0.024434609527920613,0.055152404363020817,9.0057735833333332,-0.032688833333333334,-3.7755602499999998
1403638521192829440,0.0020943951023931952,0.025132741228718346,0.056548667764616284,8.9158792916666663,-0.04903325,-3.7837324583333327
1403638521197829376,-0.0048869219055841231,0.023038346126325153,0.052359877559829883,9.0711512499999998,0.0,-3.8491101249999997
1403638521202829568,-0.0090757121103705145,0.027925268031909273,0.05445427266222308,8.9240514999999991,-0.057205458333333334,-3.7919046666666665
1403638521207829504,-0.0069813170079773184,0.023736477827122883,0.066322511575784518,8.9976013749999986,-0.122583125,-3.8082490833333327
1403638521212829440,-0.008377580409572781,0.020943951023931952,0.076794487087750496,8.8505016249999997,-0.17161637500000002,-3.7510436249999999
1403638521217829376,-0.0097738438111682462,0.0153588974175501,0.088662726001311934,9.0057735833333332,-0.14709974999999997,-3.7837324583333327
1403638521222829568,-0.010471975511965976,0.017453292519943295,0.092153384505300612,9.0711512499999998,-0.13892754166666665,-3.7592158333333332
1403638521227829504,0.0013962634015954637,0.011868238913561441,0.090757121103705138,9.0956678750000002,-0.11441091666666667,-3.702010375
1403638521232829440,0.0041887902047863905,0.013264502315156905,0.078888882190143686,9.0956678750000002,-0.14709974999999997,-3.7510436249999999
1403638521237829376,0.010471975511965976,0.013962634015954637,0.067718774977379978,9.2591120416666666,-0.15527195833333335,-3.7755602499999998
1403638521242829568,0.012566370614359173,0.024434609527920613,0.063529984772593598,9.2672842499999994,0.0081722083333333334,-3.8000768749999998
1403638521247829504,0.011868238913561441,0.030019663134302467,0.074700091985357306,9.0384624166666665,0.17978858333333333,-3.7673880416666665
1403638521252829440,0.0013962634015954637,0.030019663134302467,0.075398223686155036,8.9485681249999995,0.32688833333333334,-3.7510436249999999
1403638521257829376,-0.0034906585039886592,0.019547687622336492,0.08307767239493008,9.1038400833333331,0.196133,-3.7755602499999998
1403638521262829568,-0.011868238913561441,0.023736477827122883,0.074001960284559576,9.1610455416666667,0.065377666666666667,-3.7755602499999998
1403638521267829504,-0.016755160819145562,0.018849555921538759,0.069115038378975438,9.1201845000000006,-0.073549874999999987,-3.7673880416666665
1403638521272829440,-0.012566370614359173,0.025132741228718346,0.061435589670200401,9.1038400833333331,-0.17161637500000002,-3.8000768749999998
1403638521277829376,-0.0034906585039886592,0.024434609527920613,0.062133721370998138,8.9649125416666671,-0.20430520833333332,-3.7919046666666665
1403638521282829568,0.0041887902047863905,0.02652900463031381,0.062831853071795868,9.0139457916666661,-0.11441091666666667,-3.8491101249999997
1403638521287829504,0.0062831853071795866,0.022340214425527419,0.065624379874986788,8.8995348749999987,-0.089894291666666667,-3.8409379166666664
1403638521292829440,0.0062831853071795866,0.02652900463031381,0.066322511575784518,9.0221180000000007,0.024516625,-3.8409379166666664
1403638521297829376,0.00069813170079773186,0.023038346126325153,0.069115038378975438,8.8668460416666655,0.0081722083333333334,-3.7919046666666665
1403638521302829568,-0.0062831853071795866,0.017453292519943295,0.067020643276582248,8.883190458333333,0.0,-3.7919046666666665
1403638521307829504,-0.0041887902047863905,0.011868238913561441,0.071209433481368656,8.8750182500000001,-0.122583125,-3.7837324583333327
1403638521312829440,-0.0027925268031909274,0.011868238913561441,0.073303828583761846,8.9485681249999995,-0.13892754166666665,-3.7673880416666665
1403638521317829376,-0.0041887902047863905,0.008377580409572781,0.07749261878854824,8.9812569583333328,-0.17161637500000002,-3.7673880416666665
1403638521322829568,-0.0020943951023931952,0.017453292519943295,0.080285145591739146,9.1610455416666667,-0.13892754166666665,-3.7919046666666665
1403638521327829504,0.0034906585039886592,0.021642082724729686,0.086568330898918744,8.9567403333333324,-0.16344416666666667,-3.7265269999999999
1403638521332829440,0.0034906585039886592,0.020245819323134219,0.08307767239493008,9.0874956666666655,-0.065377666666666667,-3.7673880416666665
1403638521337829376,0.0027925268031909274,0.029321531433504733,0.08307767239493008,9.0139457916666661,-0.122583125,-3.8082490833333327
1403638521342829568,-0.0020943951023931952,0.030019663134302467,0.08377580409572781,9.0057735833333332,-0.057205458333333334,-3.8491101249999997
1403638521347829504,-0.0020943951023931952,0.027925268031909273,0.096342174710086978,8.8913626666666659,-0.032688833333333334,-3.8164212916666664
1403638521352829440,-0.00069813170079773186,0.023038346126325153,0.10262536001726656,8.9240514999999991,-0.057205458333333334,-3.857282333333333
1403638521357829376,-0.0013962634015954637,0.020245819323134219,0.097040306410884708,8.9403959166666649,-0.11441091666666667,-3.7919046666666665
1403638521362829568,0.0034906585039886592,0.013962634015954637,0.094945911308491532,9.0057735833333332,-0.032688833333333334,-3.8245934999999998
1403638521367829504,0.00069813170079773186,0.014660765716752367,0.096342174710086978,8.9894291666666657,-0.04903325,-3.8327657083333331
1403638521372829440,0.0048869219055841231,0.01117010721276371,0.095644043009289262,9.0956678750000002,-0.057205458333333334,-3.8327657083333331
1403638521377829376,0.0062831853071795866,0.018151424220741029,0.094247779607693802,9.0874956666666655,0.024516625,-3.8082490833333327
1403638521382829568,0.0062831853071795866,0.013264502315156905,0.090757121103705138,9.0302902083333318,0.081722083333333334,-3.7755602499999998
1403638521387829504,0.0020943951023931952,0.018151424220741029,0.087266462599716474,9.1038400833333331,0.040861041666666667,-3.7837324583333327
1403638521392829440,0.0013962634015954637,0.014660765716752367,0.080285145591739146,9.0956678750000002,0.065377666666666667,-3.7837324583333327
1403638521397829376,-0.00069813170079773186,0.020245819323134219,0.076794487087750496,9.1528733333333321,0.10623870833333333,-3.7592158333333332
1403638521402829568,-0.0062831853071795866,0.017453292519943295,0.07958701389094143,9.0466346249999994,0.040861041666666667,-3.7428714166666661
1403638521407829504,-0.01117010721276371,0.023038346126325153,0.071907565182166372,9.1365289166666663,0.073549874999999987,-3.8000768749999998
1403638521412829440,-0.0076794487087750501,0.02583087292951608,0.07609635538695278,9.0057735833333332,-0.10623870833333333,-3.7510436249999999
1403638521417829376,-0.010471975511965976,0.018849555921538759,0.071907565182166372,9.0139457916666661,-0.18796079166666665,-3.7755602499999998
1403638521422829568,-0.0020943951023931952,0.018849555921538759,0.07609635538695278,8.9812569583333328,-0.17978858333333333,-3.7755602499999998
1403638521427829504,-0.0027925268031909274,0.018849555921538759,0.073303828583761846,9.0548068333333322,-0.032688833333333334,-3.8164212916666664
1403638521432829440,-0.0034906585039886592,0.016057029118347832,0.075398223686155036,8.9812569583333328,-0.024516625,-3.8164212916666664
1403638521437829376,-0.0034906585039886592,0.021642082724729686,0.075398223686155036,9.1528733333333321,0.0081722083333333334,-3.8654545416666664
1403638521442829568,-0.0048869219055841231,0.02583087292951608,0.078888882190143686,8.9649125416666671,-0.13892754166666665,-3.8000768749999998
1403638521447829504,0.0,0.023038346126325153,0.08237954069413235,9.0057735833333332,-0.14709974999999997,-3.7673880416666665
1403638521452829440,0.0027925268031909274,0.020245819323134219,0.07958701389094143,8.9567403333333324,-0.081722083333333334,-3.7837324583333327
1403638521457829376,0.0041887902047863905,0.017453292519943295,0.07749261878854824,9.0384624166666665,-0.016344416666666667,-3.7592158333333332
1403638521462829568,0.0027925268031909274,0.011868238913561441,0.080285145591739146,8.8913626666666659,-0.065377666666666667,-3.7101825833333333
1403638521467829504,-0.0013962634015954637,0.0076794487087750501,0.08237954069413235,9.0874956666666655,-0.098066500000000001,-3.7919046666666665
1403638521472829440,-0.0034906585039886592,0.020943951023931952,0.090757121103705138,8.9812569583333328,-0.13892754166666665,-3.7837324583333327
1403638521477829376,0.0,0.025132741228718346,0.091455252804502868,9.1528733333333321,-0.073549874999999987,-3.8327657083333331
1403638521482829568,0.0034906585039886592,0.0307177948351002,0.097040306410884708,9.0384624166666665,-0.15527195833333335,-3.8000768749999998
1403638521487829504,0.0,0.032114058236695664,0.098436569812480182,8.9976013749999986,-0.040861041666666667,-3.8164212916666664
1403638521492829440,-0.0013962634015954637,0.02722713633111154,0.10262536001726656,8.8096405833333318,-0.016344416666666667,-3.7673880416666665
1403638521497829376,0.0020943951023931952,0.02652900463031381,0.11030480872604163,8.9403959166666649,0.10623870833333333,-3.92266
1403638521502829568,-0.0048869219055841231,0.030019663134302467,0.10471975511965977,8.8913626666666659,0.17978858333333333,-3.8981433750000001
1403638521507829504,-0.011868238913561441,0.018849555921538759,0.097738438111682452,8.9403959166666649,0.21247741666666667,-3.8899711666666663
1403638521512829440,-0.022340214425527419,0.0153588974175501,0.090058989402907408,8.8913626666666659,0.16344416666666667,-3.8164212916666664
1403638521517829376,-0.023038346126325153,0.0055850536063818549,0.089360857702109678,8.8913626666666659,-0.0081722083333333334,-3.7673880416666665
1403638521522829568,-0.029321531433504733,0.0020943951023931952,0.099134701513277898,8.9976013749999986,-0.18796079166666665,-3.7265269999999999
1403638521527829504,-0.019547687622336492,0.0,0.10681415022205297,9.1692177499999996,-0.34323275000000003,-3.7346992083333332
1403638521532829440,-0.008377580409572781,0.012566370614359173,0.11239920382843484,9.1855621666666654,-0.42495483333333334,-3.7265269999999999
1403638521537829376,0.0034906585039886592,0.018151424220741029,0.11728612573401893,9.1855621666666654,-0.35957716666666667,-3.7183547916666662
1403638521542829568,0.010471975511965976,0.034208453339088861,0.12775810124598494,9.1528733333333321,-0.3105439166666667,-3.7592158333333332
1403638521547829504,0.020245819323134219,0.038397243543875248,0.13334315485236678,9.0139457916666661,-0.15527195833333335,-3.7592158333333332
1403638521552829440,0.018151424220741029,0.037699111843077518,0.13543754995475996,9.0793234583333327,0.098066500000000001,-3.8327657083333331
1403638521557829376,0.010471975511965976,0.038397243543875248,0.1270599695451872,9.0057735833333332,0.13075533333333333,-3.906315583333333
1403638521562829568,0.0013962634015954637,0.037000980142279788,0.11588986233242347,8.9649125416666671,0.17161637500000002,-3.92266
1403638521567829504,0.0013962634015954637,0.02722713633111154,0.10890854532444616,8.8014683749999989,0.196133,-3.8736267500000001
1403638521572829440,-0.0013962634015954637,0.018849555921538759,0.094247779607693802,8.9077070833333334,0.27785508333333331,-3.8981433750000001
1403638521577829376,-0.0048869219055841231,0.010471975511965976,0.07819075048934597,8.7851239583333331,0.18796079166666665,-3.8491101249999997
1403638521582829568,-0.0041887902047863905,0.0076794487087750501,0.058643062867009467,9.0548068333333322,0.17161637500000002,-3.8736267500000001
1403638521587829504,-0.0062831853071795866,0.0076794487087750501,0.039793506945470715,9.1365289166666663,0.13892754166666665,-3.8409379166666664
1403638521592829440,-0.0041887902047863905,0.01117010721276371,0.019547687622336492,9.1610455416666667,0.26968287499999999,-3.7510436249999999
1403638521597829376,-0.0076794487087750501,0.0097738438111682462,0.010471975511965976,8.9976013749999986,0.26968287499999999,-3.67749375
1403638521602829568,-0.011868238913561441,0.01117010721276371,0.0,9.1855621666666654,0.18796079166666665,-3.6938381666666662
1403638521607829504,-0.019547687622336492,0.019547687622336492,0.0,9.1120122916666659,0.032688833333333334,-3.7428714166666661
1403638521612829440,-0.021642082724729686,0.029321531433504733,0.0062831853071795866,9.1773899583333325,-0.04903325,-3.7919046666666665
1403638521617829376,-0.011868238913561441,0.033510321638291124,0.016755160819145562,9.0057735833333332,-0.28602729166666663,-3.8082490833333327
1403638521622829568,-0.0034906585039886592,0.034906585039886591,0.027925268031909273,8.9730847499999999,-0.35140495833333335,-3.8000768749999998
1403638521627829504,0.0020943951023931952,0.032812189937493394,0.040491638646268438,8.8096405833333318,-0.40861041666666664,-3.7837324583333327
1403638521632829440,0.0055850536063818549,0.024434609527920613,0.052359877559829883,8.9077070833333334,-0.31871612500000002,-3.857282333333333
1403638521637829376,0.010471975511965976,0.023736477827122883,0.065624379874986788,8.7769517500000003,-0.31871612500000002,-3.881798958333333
1403638521642829568,0.016057029118347832,0.018151424220741029,0.07958701389094143,8.9240514999999991,-0.196133,-3.9553488333333329
1403638521647829504,0.013962634015954637,0.023038346126325153,0.092153384505300612,8.8096405833333318,-0.16344416666666667,-3.8899711666666663
1403638521652829440,0.013264502315156905,0.010471975511965976,0.092153384505300612,8.834157208333334,0.0,-3.8409379166666664
1403638521657829376,0.0034906585039886592,0.0090757121103705145,0.086568330898918744,9.0548068333333322,0.024516625,-3.8409379166666664
1403638521662829568,0.0027925268031909274,0.013264502315156905,0.086568330898918744,9.1528733333333321,0.0,-3.8000768749999998
1403638521667829504,-0.00069813170079773186,0.013962634015954637,0.080285145591739146,8.9894291666666657,0.0081722083333333334,-3.7592158333333332
1403638521672829440,0.0,0.0055850536063818549,0.078888882190143686,9.1283567083333317,-0.057205458333333334,-3.7346992083333332
1403638521677829376,-0.0013962634015954637,0.018151424220741029,0.07609635538695278,9.2591120416666666,0.0081722083333333334,-3.7837324583333327
1403638521682829568,-0.0076794487087750501,0.019547687622336492,0.07958701389094143,9.1855621666666654,0.040861041666666667,-3.6856659583333333
1403638521687829504,-0.011868238913561441,0.023038346126325153,0.078888882190143686,9.2264232083333333,-0.057205458333333334,-3.7510436249999999
1403638521692829440,-0.0048869219055841231,0.034906585039886591,0.085870199198121014,9.1447011249999992,-0.11441091666666667,-3.7346992083333332
1403638521697829376,-0.0055850536063818549,0.035604716740684328,0.090757121103705138,8.9976013749999986,-0.17161637500000002,-3.7101825833333333
1403638521702829568,-0.00069813170079773186,0.030019663134302467,0.092851516206098328,8.9158792916666663,-0.196133,-3.7428714166666661
1403638521707829504,0.0041887902047863905,0.02652900463031381,0.098436569812480182,9.0548068333333322,-0.17161637500000002,-3.8327657083333331
1403638521712829440,0.0069813170079773184,0.023038346126325153,0.11100294042683936,8.9812569583333328,-0.16344416666666667,-3.8409379166666664
1403638521717829376,0.012566370614359173,0.025132741228718346,0.1165879940332212,9.0139457916666661,-0.057205458333333334,-3.8409379166666664
1403638521722829568,0.01117010721276371,0.018151424220741029,0.11728612573401893,8.9240514999999991,0.016344416666666667,-3.8245934999999998
1403638521727829504,0.0069813170079773184,0.016755160819145562,0.10681415022205297,9.0956678750000002,0.17978858333333333,-3.8164212916666664
1403638521732829440,0.0013962634015954637,0.016755160819145562,0.10122909661567112,8.9894291666666657,0.25333845833333329,-3.7510436249999999
1403638521737829376,-0.0048869219055841231,0.014660765716752367,0.088662726001311934,9.1855621666666654,0.27785508333333331,-3.8164212916666664
1403638521742829568,-0.01117010721276371,0.014660765716752367,0.07609635538695278,9.1447011249999992,0.26968287499999999,-3.7919046666666665
1403638521747829504,-0.016057029118347832,0.020245819323134219,0.056548667764616284,9.2591120416666666,0.23699404166666665,-3.8000768749999998
1403638521752829440,-0.021642082724729686,0.022340214425527419,0.048869219055841226,9.0711512499999998,0.089894291666666667,-3.7673880416666665
1403638521757829376,-0.023038346126325153,0.019547687622336492,0.032114058236695664,9.1855621666666654,-0.032688833333333334,-3.7919046666666665
1403638521762829568,-0.018849555921538759,0.028623399732707,0.037000980142279788,8.9976013749999986,-0.17161637500000002,-3.7510436249999999
1403638521767829504,-0.011868238913561441,0.021642082724729686,0.044680428851054839,8.9485681249999995,-0.196133,-3.7673880416666665
1403638521772829440,-0.0055850536063818549,0.018849555921538759,0.050265482457436693,8.9403959166666649,-0.29419949999999995,-3.7510436249999999
1403638521777829376,0.0,0.020245819323134219,0.057944931166211737,9.0466346249999994,-0.26968287499999999,-3.7919046666666665
1403638521782829568,0.0048869219055841231,0.023038346126325153,0.066322511575784518,8.9567403333333324,-0.26151066666666667,-3.7510436249999999
1403638521787829504,0.0090757121103705145,0.017453292519943295,0.071907565182166372,9.0384624166666665,-0.23699404166666665,-3.8327657083333331
1403638521792829440,0.014660765716752367,0.028623399732707,0.07609635538695278,8.9894291666666657,-0.16344416666666667,-3.8491101249999997
1403638521797829376,0.019547687622336492,0.028623399732707,0.07749261878854824,8.9976013749999986,-0.024516625,-3.881798958333333
1403638521802829568,0.020943951023931952,0.028623399732707,0.076794487087750496,8.9403959166666649,0.11441091666666667,-3.8327657083333331
1403638521807829504,0.016755160819145562,0.018849555921538759,0.076794487087750496,8.9403959166666649,0.16344416666666667,-3.8082490833333327
1403638521812829440,0.0097738438111682462,0.017453292519943295,0.07749261878854824,8.9976013749999986,0.22882183333333334,-3.8082490833333327
1403638521817829376,0.0013962634015954637,0.013264502315156905,0.078888882190143686,9.0057735833333332,0.18796079166666665,-3.7919046666666665
1403638521822829568,-0.0041887902047863905,0.013264502315156905,0.07749261878854824,9.0221180000000007,0.057205458333333334,-3.7919046666666665
1403638521827829504,-0.0048869219055841231,0.010471975511965976,0.07819075048934597,9.0466346249999994,-0.073549874999999987,-3.7673880416666665
1403638521832829440,-0.00069813170079773186,0.016755160819145562,0.080983277292536876,9.1528733333333321,-0.057205458333333334,-3.7919046666666665
1403638521837829376,-0.0020943951023931952,0.016057029118347832,0.08377580409572781,9.0139457916666661,-0.081722083333333334,-3.7592158333333332
1403638521842829568,-0.0013962634015954637,0.020943951023931952,0.085870199198121014,9.1283567083333317,-0.057205458333333334,-3.7510436249999999
1403638521847829504,-0.0041887902047863905,0.023038346126325153,0.092851516206098328,9.0384624166666665,-0.089894291666666667,-3.7673880416666665
1403638521852829440,-0.0048869219055841231,0.02583087292951608,0.087266462599716474,9.1610455416666667,-0.073549874999999987,-3.8245934999999998
1403638521857829376,0.0,0.034208453339088861,0.090757121103705138,9.0384624166666665,-0.14709974999999997,-3.8245934999999998
1403638521862829568,0.0076794487087750501,0.031415926535897934,0.089360857702109678,9.0057735833333332,-0.21247741666666667,-3.8245934999999998
1403638521867829504,0.013264502315156905,0.02583087292951608,0.085870199198121014,8.8913626666666659,-0.3105439166666667,-3.8164212916666664
1403638521872829440,0.016755160819145562,0.027925268031909273,0.084473935796525554,8.9812569583333328,-0.22064962499999999,-3.8327657083333331
1403638521877829376,0.025132741228718346,0.017453292519943295,0.090058989402907408,8.7687795416666656,-0.24516625,-3.7592158333333332
1403638521882829568,0.022340214425527419,0.0062831853071795866,0.094247779607693802,8.9812569583333328,-0.22882183333333334,-3.7673880416666665
1403638521887829504,0.022340214425527419,0.0090757121103705145,0.094945911308491532,8.9485681249999995,-0.20430520833333332,-3.7265269999999999
1403638521892829440,0.024434609527920613,0.0076794487087750501,0.097040306410884708,9.1283567083333317,-0.17161637500000002,-3.702010375
1403638521897829376,0.02652900463031381,0.012566370614359173,0.10332349171806432,9.0956678750000002,-0.18796079166666665,-3.6366327083333334
1403638521902829568,0.030019663134302467,0.019547687622336492,0.10332349171806432,9.1773899583333325,-0.10623870833333333,-3.6448049166666663
1403638521907829504,0.032812189937493394,0.022340214425527419,0.10332349171806432,9.1120122916666659,0.024516625,-3.6529771249999996
1403638521912829440,0.02583087292951608,0.023736477827122883,0.094945911308491532,9.1855621666666654,0.18796079166666665,-3.7183547916666662
1403638521917829376,0.012566370614359173,0.028623399732707,0.085870199198121014,9.0384624166666665,0.3350605416666666,-3.702010375
1403638521922829568,0.0090757121103705145,0.018849555921538759,0.070511301780570912,9.1120122916666659,0.31871612500000002,-3.6938381666666662
1403638521927829504,0.0034906585039886592,0.022340214425527419,0.058643062867009467,9.1528733333333321,0.20430520833333332,-3.7346992083333332
1403638521932829440,0.00069813170079773186,0.014660765716752367,0.037000980142279788,9.2999730833333327,-0.024516625,-3.7101825833333333
1403638521937829376,0.011868238913561441,0.018151424220741029,0.018849555921538759,9.5696559583333336,-0.28602729166666663,-3.702010375
1403638521942829568,0.031415926535897934,0.041189770347066175,0.008377580409572781,9.7085834999999996,-0.4494714583333333,-3.702010375
1403638521947829504,0.049567350756638949,0.07609635538695278,0.0020943951023931952,9.4552450416666662,-0.36774937499999999,-3.6938381666666662
1403638521952829440,0.062831853071795868,0.10053096491487339,0.011868238913561441,9.2264232083333333,-0.196133,-3.6938381666666662
1403638521957829376,0.065624379874986788,0.11100294042683936,0.034906585039886591,8.7687795416666656,-0.16344416666666667,-3.587599458333333
1403638521962829568,0.065624379874986788,0.08307767239493008,0.055850536063818547,8.5072688749999994,-0.21247741666666667,-3.4650163333333333
1403638521967829504,0.068416906678177722,0.05375614096142535,0.062133721370998138,8.5072688749999994,-0.3105439166666667,-3.5303939999999998
1403638521972829440,0.071209433481368656,0.028623399732707,0.058643062867009467,8.5563021250000002,-0.392266,-3.6121160833333334
1403638521977829376,0.078888882190143686,0.0041887902047863905,0.048869219055841226,8.343824708333333,-0.46581587499999999,-3.4486719166666666
1403638521982829568,0.087266462599716474,-0.036302848441482058,0.034208453339088861,8.6707130416666658,-0.69463770833333327,-3.587599458333333
1403638521987829504,0.095644043009289262,-0.029321531433504733,0.032812189937493394,9.0221180000000007,-0.55571016666666662,-3.7755602499999998
1403638521992829440,0.10821041362364843,-0.023038346126325153,0.065624379874986788,8.5808187499999988,-0.22882183333333334,-3.5303939999999998
1403638521997829376,0.10332349171806432,-0.032812189937493394,0.080983277292536876,8.7687795416666656,0.089894291666666667,-3.7919046666666665
1403638522002829568,0.085870199198121014,-0.036302848441482058,0.085870199198121014,8.8750182500000001,0.41678262500000002,-3.8000768749999998
1403638522007829504,0.062133721370998138,-0.046076692252650306,0.080285145591739146,9.3408341249999989,0.49850470833333332,-4.1841706666666667
1403638522012829440,0.0307177948351002,-0.05375614096142535,0.065624379874986788,9.3653507499999993,0.62108783333333339,-4.2658927499999999
1403638522017829376,0.008377580409572781,-0.057944931166211737,0.052359877559829883,10.035471833333334,0.57205458333333326,-4.486542375
1403638522022829568,0.0013962634015954637,-0.042586033748661642,0.034208453339088861,9.8801998750000006,0.24516625,-4.2086872916666662
1403638522027829504,-0.0020943951023931952,-0.046076692252650306,0.0097738438111682462,9.7494445416666657,0.10623870833333333,-4.1923428749999996
1403638522032829440,-0.0097738438111682462,-0.044680428851054839,-0.0069813170079773184,9.4143839999999983,0.016344416666666667,-4.0207264999999994
1403638522037829376,-0.018849555921538759,-0.056548667764616284,-0.0097738438111682462,9.4143839999999983,0.122583125,-4.1106207916666664
1403638522042829568,-0.030019663134302467,-0.050963614158234416,0.0013962634015954637,9.5778281666666665,0.032688833333333334,-4.2740649583333337
1403638522047829504,-0.034208453339088861,-0.047472955654245766,0.014660765716752367,9.6186892083333326,-0.17161637500000002,-4.3230982083333336
1403638522052829440,-0.033510321638291124,-0.045378560551852569,0.030019663134302467,9.3408341249999989,-0.32688833333333334,-4.2413761249999995
1403638522057829376,-0.019547687622336492,-0.064228116473391328,0.041887902047863905,9.4307284166666658,-0.40861041666666664,-4.2332039166666666
1403638522062829568,-0.0048869219055841231,-0.084473935796525554,0.040491638646268438,9.4797616666666666,-0.35957716666666667,-4.2577205416666661
1403638522067829504,0.0048869219055841231,-0.10890854532444616,0.034208453339088861,9.6186892083333326,-0.18796079166666665,-4.2413761249999995
1403638522072829440,0.0076794487087750501,-0.114493598930828,0.027925268031909273,9.7739611666666661,-0.065377666666666667,-4.3067537916666661
1403638522077829376,0.011868238913561441,-0.12007865253720987,0.02583087292951608,10.002782999999999,-0.089894291666666667,-4.396648083333333
1403638522082829568,0.0153588974175501,-0.10890854532444616,0.023038346126325153,10.24794925,-0.25333845833333329,-4.486542375
1403638522087829504,0.02652900463031381,-0.10471975511965977,0.025132741228718346,10.133538333333334,-0.25333845833333329,-4.3312704166666665
1403638522092829440,0.031415926535897934,-0.099134701513277898,0.028623399732707,10.002782999999999,-0.38409379166666668,-4.2658927499999999
1403638522097829376,0.043982297150257102,-0.097738438111682452,0.039793506945470715,9.8965442916666664,-0.46581587499999999,-4.2086872916666662
1403638522102829568,0.050963614158234416,-0.091455252804502868,0.056548667764616284,9.8638554583333331,-0.47398808333333331,-4.1106207916666664
1403638522107829504,0.064228116473391328,-0.087964594300514204,0.085172067497323284,9.8556832499999985,-0.49850470833333332,-4.1187929999999993
1403638522112829440,0.067020643276582248,-0.085172067497323284,0.1096066770252439,9.9374053333333343,-0.35140495833333335,-4.1841706666666667
1403638522117829376,0.072605696882964116,-0.070511301780570912,0.13194689145077129,10.027299624999999,-0.196133,-4.2005150833333333
1403638522122829568,0.074001960284559576,-0.05166174585903216,0.13892820845874865,10.125366124999999,-0.20430520833333332,-4.1759984583333329
1403638522127829504,0.07749261878854824,-0.037000980142279788,0.14451326206513049,10.207088208333332,-0.196133,-4.3312704166666665
1403638522132829440,0.08307767239493008,-0.018151424220741029,0.14381513036433274,10.125366124999999,-0.17978858333333333,-4.2168595
1403638522137829376,0.090058989402907408,-0.0062831853071795866,0.14381513036433274,9.9700941666666658,-0.04903325,-4.2495483333333333
1403638522142829568,0.090058989402907408,0.0069813170079773184,0.13753194505715316,10.223432624999999,0.04903325,-4.3312704166666665
1403638522147829504,0.090757121103705138,0.023736477827122883,0.1291543646475804,10.010955208333332,0.0,-4.1841706666666667
1403638522152829440,0.098436569812480182,0.038397243543875248,0.12775810124598494,10.043644041666665,0.11441091666666667,-4.2413761249999995
1403638522157829376,0.10332349171806432,0.044680428851054839,0.12775810124598494,10.043644041666665,-0.016344416666666667,-4.2495483333333333
1403638522162829568,0.10053096491487339,0.063529984772593598,0.12077678423800758,10.166227166666665,0.17161637500000002,-4.3067537916666661
1403638522167829504,0.099832833214075656,0.07958701389094143,0.1270599695451872,10.076332875,0.26151066666666667,-4.2658927499999999
1403638522172829440,0.092851516206098328,0.097040306410884708,0.12426744274199628,10.256121458333332,0.25333845833333329,-4.3230982083333336
1403638522177829376,0.08307767239493008,0.10890854532444616,0.12426744274199628,10.027299624999999,0.16344416666666667,-4.2332039166666666
1403638522182829568,0.08307767239493008,0.11868238913561441,0.12147491593880534,10.182571583333333,0.10623870833333333,-4.2577205416666661
1403638522187829504,0.080983277292536876,0.13055062804917586,0.12496557444279401,10.084505083333333,0.057205458333333334,-4.2005150833333333
1403638522192829440,0.078888882190143686,0.13473941825396224,0.11868238913561441,10.256121458333332,0.14709974999999997,-4.3230982083333336
1403638522197829376,0.07819075048934597,0.15009831567151233,0.11728612573401893,10.2969825,0.11441091666666667,-4.2658927499999999
1403638522202829568,0.080285145591739146,0.15498523757709648,0.11519173063162574,10.2969825,0.0081722083333333334,-4.2495483333333333
1403638522207829504,0.08307767239493008,0.16336281798666924,0.10053096491487339,10.280638083333333,-0.15527195833333335,-4.2332039166666666
1403638522212829440,0.092153384505300612,0.16964600329384885,0.097738438111682452,10.272465875,-0.26151066666666667,-4.0697597499999993
1403638522217829376,0.10053096491487339,0.18011797880581482,0.097738438111682452,10.100849499999999,-0.26968287499999999,-4.0207264999999994
1403638522222829568,0.11239920382843484,0.18011797880581482,0.10262536001726656,10.313326916666666,-0.22882183333333334,-4.037070916666667
1403638522227829504,0.11728612573401893,0.19338248112097173,0.10332349171806432,10.370532375,-0.18796079166666665,-3.9553488333333329
1403638522232829440,0.11938052083641214,0.19687313962496036,0.10821041362364843,10.411393416666668,-0.11441091666666667,-4.0043820833333328
1403638522237829376,0.11798425743481668,0.20804324683772407,0.10332349171806432,10.4931155,-0.196133,-4.0288987083333332
1403638522242829568,0.12077678423800758,0.21642082724729686,0.10192722831646883,10.435910041666666,-0.23699404166666665,-3.97169325
1403638522247829504,0.13194689145077129,0.22340214425527419,0.10262536001726656,10.403221208333333,-0.17978858333333333,-3.9880376666666666
1403638522252829440,0.1361356816555577,0.23108159296404923,0.11309733552923257,10.354187958333334,-0.065377666666666667,-4.0043820833333328
1403638522257829376,0.13124875974997358,0.23457225146803787,0.11588986233242347,10.395049,-0.016344416666666667,-4.0779319583333331
1403638522262829568,0.12985249634837812,0.24015730507441974,0.12356931104119852,10.24794925,-0.040861041666666667,-4.0452431249999998
1403638522267829504,0.1340412865531645,0.24294983187761068,0.1270599695451872,10.280638083333333,-0.040861041666666667,-4.0288987083333332
1403638522272829440,0.13334315485236678,0.24504422698000386,0.13124875974997358,10.239777041666667,-0.032688833333333334,-4.0534153333333327
1403638522277829376,0.13473941825396224,0.24434609527920614,0.13055062804917586,10.305154708333331,0.040861041666666667,-4.0452431249999998
1403638522282829568,0.14172073526193954,0.24294983187761068,0.1361356816555577,10.215260416666666,0.17161637500000002,-4.0288987083333332
1403638522287829504,0.13683381335635544,0.24294983187761068,0.1270599695451872,10.378704583333333,0.21247741666666667,-4.0779319583333331
1403638522292829440,0.1340412865531645,0.24294983187761068,0.12496557444279401,10.346015749999999,0.22064962499999999,-4.0942763749999997
1403638522297829376,0.13055062804917586,0.24225170017681294,0.12007865253720987,10.378704583333333,0.28602729166666663,-4.1106207916666664
1403638522302829568,0.12775810124598494,0.23876104167282428,0.11309733552923257,10.280638083333333,0.11441091666666667,-4.1351374166666668
1403638522307829504,0.1291543646475804,0.23876104167282428,0.10611601852125524,10.280638083333333,0.081722083333333334,-4.1678262500000001
1403638522312829440,0.12985249634837812,0.23945917337362199,0.11030480872604163,9.994610791666668,0.040861041666666667,-4.126965208333333
1403638522317829376,0.13124875974997358,0.22549653935766736,0.1075122819228507,10.043644041666665,-0.04903325,-4.1433096249999997
1403638522322829568,0.13194689145077129,0.21362830044410594,0.10611601852125524,9.9455775416666654,-0.057205458333333334,-4.1433096249999997
1403638522327829504,0.13124875974997358,0.19896753472735357,0.10262536001726656,9.9374053333333343,0.0,-4.0942763749999997
1403638522332829440,0.12775810124598494,0.18919369091618532,0.10192722831646883,9.831166624999998,-0.073549874999999987,-4.0942763749999997
1403638522337829376,0.12007865253720987,0.17662732030182612,0.091455252804502868,9.9210609166666668,-0.13892754166666665,-4.0779319583333331
1403638522342829568,0.11938052083641214,0.17174039839624203,0.089360857702109678,9.7984777916666665,-0.18796079166666665,-3.97169325
1403638522347829504,0.12007865253720987,0.15777776438028737,0.092851516206098328,9.8475110416666656,-0.23699404166666665,-3.8899711666666663
