#timestamp [ns],w_RS_S_x [rad s^-1],w_RS_S_y [rad s^-1],w_RS_S_z [rad s^-1],a_RS_S_x [m s^-2],a_RS_S_y [m s^-2],a_RS_S_z [m s^-2]
1403715273262142976,-0.0020943951023931952,0.017453292519943295,0.07749261878854824,9.0874956666666655,0.13075533333333333,-3.6938381666666662
1403715273267142912,-0.0013962634015954637,0.019547687622336492,0.07819075048934597,9.0793234583333327,0.122583125,-3.6938381666666662
1403715273272143104,-0.0020943951023931952,0.016755160819145562,0.074700091985357306,9.0384624166666665,0.14709974999999997,-3.6693215416666662
1403715273277143040,-0.0027925268031909274,0.020943951023931952,0.07819075048934597,9.0711512499999998,0.122583125,-3.67749375
1403715273282142976,-0.0020943951023931952,0.020943951023931952,0.078888882190143686,9.0793234583333327,0.13075533333333333,-3.702010375
1403715273287142912,0.0,0.021642082724729686,0.07958701389094143,9.0548068333333322,0.073549874999999987,-3.6938381666666662
1403715273292143104,-0.0013962634015954637,0.023038346126325153,0.074001960284559576,9.0956678750000002,0.13892754166666665,-3.6611493333333334
1403715273297143040,-0.0034906585039886592,0.022340214425527419,0.080285145591739146,9.0629790416666669,0.073549874999999987,-3.6693215416666662
1403715273302142976,-0.0041887902047863905,0.017453292519943295,0.07609635538695278,9.1365289166666663,0.14709974999999997,-3.702010375
1403715273307142912,-0.0013962634015954637,0.018151424220741029,0.07958701389094143,9.0548068333333322,0.065377666666666667,-3.6366327083333334
1403715273312143104,-0.0020943951023931952,0.020245819323134219,0.074001960284559576,9.0874956666666655,0.13892754166666665,-3.6693215416666662
1403715273317143040,-0.0034906585039886592,0.021642082724729686,0.080285145591739146,9.0466346249999994,0.11441091666666667,-3.67749375
1403715273322142976,-0.0027925268031909274,0.020943951023931952,0.078888882190143686,9.0793234583333327,0.17161637500000002,-3.7510436249999999
1403715273327142912,-0.0020943951023931952,0.023038346126325153,0.07958701389094143,9.0548068333333322,0.11441091666666667,-3.702010375
1403715273332143104,-0.0041887902047863905,0.018849555921538759,0.07609635538695278,9.0793234583333327,0.073549874999999987,-3.702010375
1403715273337143040,-0.0034906585039886592,0.021642082724729686,0.07958701389094143,9.0548068333333322,0.13075533333333333,-3.6693215416666662
1403715273342142976,-0.0055850536063818549,0.022340214425527419,0.07819075048934597,9.0874956666666655,0.10623870833333333,-3.7183547916666662
1403715273347142912,-0.0027925268031909274,0.021642082724729686,0.076794487087750496,9.0629790416666669,0.13892754166666665,-3.67749375
1403715273352143104,-0.0020943951023931952,0.016057029118347832,0.076794487087750496,9.0384624166666665,0.098066500000000001,-3.7346992083333332
1403715273357143040,-0.0034906585039886592,0.018849555921538759,0.074700091985357306,9.0629790416666669,0.122583125,-3.7428714166666661
1403715273362142976,-0.0027925268031909274,0.019547687622336492,0.080285145591739146,9.0384624166666665,0.098066500000000001,-3.7346992083333332
1403715273367142912,-0.0013962634015954637,0.018151424220741029,0.076794487087750496,9.0874956666666655,0.13075533333333333,-3.67749375
1403715273372143104,-0.0027925268031909274,0.019547687622336492,0.07819075048934597,9.0302902083333318,0.11441091666666667,-3.67749375
1403715273377143040,-0.0048869219055841231,0.016755160819145562,0.071209433481368656,9.0793234583333327,0.17978858333333333,-3.67749375
1403715273382142976,0.00069813170079773186,0.020245819323134219,0.07749261878854824,9.0384624166666665,0.098066500000000001,-3.6938381666666662
1403715273387142912,0.00069813170079773186,0.019547687622336492,0.07609635538695278,9.0956678750000002,0.15527195833333335,-3.702010375
1403715273392143104,-0.0013962634015954637,0.023038346126325153,0.080983277292536876,9.0711512499999998,0.11441091666666667,-3.6938381666666662
1403715273397143040,-0.0034906585039886592,0.020245819323134219,0.080285145591739146,9.0956678750000002,0.11441091666666667,-3.7346992083333332
1403715273402142976,-0.0027925268031909274,0.022340214425527419,0.07958701389094143,9.0302902083333318,0.11441091666666667,-3.6856659583333333
1403715273407142912,-0.0048869219055841231,0.021642082724729686,0.075398223686155036,9.0874956666666655,0.098066500000000001,-3.67749375
1403715273412143104,-0.0013962634015954637,0.022340214425527419,0.07749261878854824,9.0793234583333327,0.089894291666666667,-3.702010375
1403715273417143040,-0.0034906585039886592,0.020943951023931952,0.074700091985357306,9.0793234583333327,0.04903325,-3.7510436249999999
1403715273422142976,-0.0034906585039886592,0.020943951023931952,0.076794487087750496,9.0384624166666665,0.089894291666666667,-3.702010375
1403715273427142912,-0.0013962634015954637,0.022340214425527419,0.076794487087750496,9.0956678750000002,0.122583125,-3.7265269999999999
1403715273432143104,0.00069813170079773186,0.019547687622336492,0.078888882190143686,9.0548068333333322,0.098066500000000001,-3.67749375
1403715273437143040,-0.0034906585039886592,0.020245819323134219,0.07609635538695278,9.0629790416666669,0.089894291666666667,-3.6611493333333334
1403715273442142976,-0.0034906585039886592,0.018849555921538759,0.07819075048934597,9.0956678750000002,0.17161637500000002,-3.702010375
1403715273447142912,-0.0041887902047863905,0.022340214425527419,0.080285145591739146,9.0384624166666665,0.11441091666666667,-3.7183547916666662
1403715273452143104,0.0,0.019547687622336492,0.078888882190143686,9.0956678750000002,0.15527195833333335,-3.702010375
1403715273457143040,0.0,0.020245819323134219,0.080983277292536876,9.0057735833333332,0.057205458333333334,-3.702010375
1403715273462142976,-0.0034906585039886592,0.019547687622336492,0.074001960284559576,9.0793234583333327,0.122583125,-3.7346992083333332
1403715273467142912,-0.0013962634015954637,0.021642082724729686,0.076794487087750496,9.0384624166666665,0.122583125,-3.6856659583333333
1403715273472143104,-0.0048869219055841231,0.017453292519943295,0.078888882190143686,9.1038400833333331,0.122583125,-3.6529771249999996
1403715273477143040,-0.00069813170079773186,0.023038346126325153,0.08307767239493008,8.9976013749999986,0.13075533333333333,-3.702010375
1403715273482142976,-0.0034906585039886592,0.018151424220741029,0.07958701389094143,9.0466346249999994,0.14709974999999997,-3.7183547916666662
1403715273487142912,-0.0034906585039886592,0.022340214425527419,0.08168140899333462,9.0302902083333318,0.10623870833333333,-3.7183547916666662
1403715273492143104,0.0,0.021642082724729686,0.07609635538695278,9.0711512499999998,0.13892754166666665,-3.6856659583333333
1403715273497143040,-0.0020943951023931952,0.021642082724729686,0.080983277292536876,9.0956678750000002,0.13892754166666665,-3.702010375
1403715273502142976,-0.0020943951023931952,0.019547687622336492,0.07819075048934597,9.0793234583333327,0.14709974999999997,-3.6938381666666662
1403715273507142912,-0.0027925268031909274,0.018849555921538759,0.078888882190143686,9.0711512499999998,0.15527195833333335,-3.702010375
1403715273512143104,-0.0020943951023931952,0.022340214425527419,0.080983277292536876,9.0548068333333322,0.065377666666666667,-3.67749375
1403715273517143040,-0.0048869219055841231,0.021642082724729686,0.08168140899333462,9.0956678750000002,0.089894291666666667,-3.6693215416666662
1403715273522142976,-0.0034906585039886592,0.020245819323134219,0.07609635538695278,9.0629790416666669,0.11441091666666667,-3.6938381666666662
1403715273527142912,-0.0020943951023931952,0.019547687622336492,0.07749261878854824,9.0956678750000002,0.15527195833333335,-3.7265269999999999
1403715273532143104,-0.0013962634015954637,0.021642082724729686,0.080285145591739146,9.0384624166666665,0.081722083333333334,-3.7346992083333332
1403715273537143040,-0.0034906585039886592,0.022340214425527419,0.076794487087750496,9.0793234583333327,0.122583125,-3.7837324583333327
1403715273542142976,-0.0034906585039886592,0.024434609527920613,0.07609635538695278,9.0466346249999994,-0.0081722083333333334,-3.7346992083333332
1403715273547142912,-0.010471975511965976,0.018849555921538759,0.076794487087750496,8.9158792916666663,0.53936574999999998,-3.6856659583333333
1403715273552143104,-0.016057029118347832,0.013264502315156905,0.093549647906896058,9.3244897083333331,0.26151066666666667,-3.7673880416666665
1403715273557143040,-0.027925268031909273,0.0307177948351002,0.07958701389094143,8.8913626666666659,-0.13075533333333333,-3.6202882916666663
1403715273562142976,-0.0013962634015954637,0.0097738438111682462,0.092851516206098328,9.1365289166666663,-0.35957716666666667,-3.5222217916666665
1403715273567142912,0.028623399732707,0.037699111843077518,0.065624379874986788,9.2264232083333333,-0.89077070833333327,-3.6693215416666662
1403715273572143104,0.057944931166211737,0.012566370614359173,0.061435589670200401,8.8505016249999997,-0.196133,-3.5140495833333332
1403715273577143040,0.060737457969402671,0.019547687622336492,0.050963614158234416,9.2918008749999998,0.4903325,-3.7592158333333332
1403715273582142976,0.024434609527920613,0.023038346126325153,0.069115038378975438,8.834157208333334,1.4955141249999999,-3.6693215416666662
1403715273587142912,-0.049567350756638949,0.012566370614359173,0.08307767239493008,9.0711512499999998,1.7243359583333333,-3.97169325
1403715273592143104,-0.10681415022205297,0.019547687622336492,0.097738438111682452,9.1528733333333321,0.76001537499999994,-3.6938381666666662
1403715273597143040,-0.10471975511965977,0.024434609527920613,0.1075122819228507,8.9403959166666649,-0.56388237500000005,-3.6611493333333334
1403715273602142976,-0.057944931166211737,0.020943951023931952,0.10053096491487339,8.8913626666666659,-1.1359369583333332,-3.3342610000000001
1403715273607142912,0.0153588974175501,0.0055850536063818549,0.10262536001726656,9.6922390833333321,-1.2503478749999999,-3.67749375
1403715273612143104,0.080983277292536876,0.048869219055841226,0.050963614158234416,9.1283567083333317,-1.2585200833333332,-3.6529771249999996
1403715273617143040,0.12356931104119852,0.013962634015954637,0.050963614158234416,8.7115740833333319,0.081722083333333334,-3.4977051666666665
1403715273622142976,0.10611601852125524,0.035604716740684328,0.05305800926062762,9.1365289166666663,1.3729310000000001,-3.7428714166666661
1403715273627142912,0.028623399732707,-0.0069813170079773184,0.076794487087750496,8.7279184999999995,1.9940188333333333,-3.7510436249999999
1403715273632143104,-0.058643062867009467,0.016755160819145562,0.071907565182166372,9.872027666666666,1.2666922916666667,-4.126965208333333
1403715273637143040,-0.087266462599716474,0.055850536063818547,0.073303828583761846,8.6298519999999996,-0.18796079166666665,-3.5467384166666669
1403715273642142976,-0.056548667764616284,-0.0076794487087750501,0.099832833214075656,8.3765135416666663,-0.26968287499999999,-3.4323274999999995
1403715273647142912,-0.037000980142279788,0.01117010721276371,0.08168140899333462,9.7494445416666657,-0.24516625,-3.7428714166666661
1403715273652143104,-0.034906585039886591,0.02652900463031381,0.065624379874986788,8.834157208333334,-0.032688833333333334,-3.5630828333333331
1403715273657143040,-0.021642082724729686,-0.011868238913561441,0.061435589670200401,9.1528733333333321,0.122583125,-3.7101825833333333
1403715273662142976,-0.012566370614359173,0.031415926535897934,0.092153384505300612,9.0057735833333332,-0.073549874999999987,-3.6284604999999996
1403715273667142912,-0.0013962634015954637,0.008377580409572781,0.098436569812480182,8.9812569583333328,-0.22882183333333334,-3.7510436249999999
1403715273672143104,0.032114058236695664,0.030019663134302467,0.092851516206098328,9.5696559583333336,-0.91528733333333334,-3.5794272499999997
1403715273677143040,0.087266462599716474,0.045378560551852569,0.078888882190143686,8.793296166666666,-1.0705592916666666,-3.4241552916666667
1403715273682142976,0.11728612573401893,0.0034906585039886592,0.071209433481368656,8.572646541666666,0.35140495833333335,-3.6039438749999997
1403715273687142912,0.076794487087750496,0.013962634015954637,0.060737457969402671,9.6595502499999988,1.4791697083333333,-3.906315583333333
1403715273692143104,-0.0062831853071795866,0.042586033748661642,0.040491638646268438,8.8913626666666659,1.4464808749999998,-3.9798654583333328
1403715273697143040,-0.065624379874986788,-0.0062831853071795866,0.067020643276582248,8.4990966666666665,1.4546530833333333,-3.6611493333333334
1403715273702142976,-0.10890854532444616,0.0069813170079773184,0.11030480872604163,9.4389006250000005,1.1441091666666665,-3.8736267500000001
1403715273707142912,-0.15358897417550099,0.023038346126325153,0.10890854532444616,8.8995348749999987,0.23699404166666665,-3.7592158333333332
1403715273712143104,-0.14032447186034408,0.0069813170079773184,0.11379546723003027,9.4143839999999983,-1.0051816249999999,-3.5385662083333331
1403715273717143040,-0.068416906678177722,0.039095375244672985,0.11100294042683936,9.1447011249999992,-2.0512242916666668,-3.366949833333333
1403715273722142976,0.068416906678177722,0.016057029118347832,0.094247779607693802,9.0711512499999998,-2.0675687083333334,-3.5549106249999998
1403715273727142912,0.14870205226991687,0.034906585039886591,0.049567350756638949,9.5042782916666653,-1.4219642499999998,-3.5794272499999997
1403715273732143104,0.19198621771937624,0.049567350756638949,0.025132741228718346,8.8668460416666655,-0.196133,-3.6284604999999996
1403715273737143040,0.17872171540421936,0.0062831853071795866,0.046774823953448029,8.7115740833333319,1.5200307499999999,-3.7755602499999998
1403715273742142976,0.078888882190143686,0.034906585039886591,0.041887902047863905,9.643205833333333,2.852100708333333,-4.0942763749999997
1403715273747142912,-0.061435589670200401,0.029321531433504733,0.069813170079773182,8.3193080833333326,2.9338227916666666,-3.8245934999999998
1403715273752143104,-0.16964600329384885,-0.011868238913561441,0.07749261878854824,8.7034018749999991,1.6426138750000001,-3.8000768749999998
1403715273757143040,-0.19198621771937624,0.0034906585039886592,0.12077678423800758,9.2100787916666658,0.15527195833333335,-3.6448049166666663
1403715273762142976,-0.1626646862858715,0.0048869219055841231,0.11030480872604163,9.2182509999999986,-1.5200307499999999,-3.6529771249999996
1403715273767142912,-0.07819075048934597,0.016755160819145562,0.114493598930828,9.2754564583333323,-1.6753027083333332,-3.3587776250000001
1403715273772143104,0.0153588974175501,0.042586033748661642,0.086568330898918744,9.3816951666666668,-1.9286411666666665,-3.5630828333333331
1403715273777143040,0.11798425743481668,0.033510321638291124,0.071907565182166372,8.6952296666666662,-1.201314625,-3.342433208333333
1403715273782142976,0.14660765716752369,0.023038346126325153,0.041189770347066175,9.2591120416666666,0.0,-3.7101825833333333
1403715273787142912,0.12845623294678266,0.05375614096142535,0.034208453339088861,9.2264232083333333,0.94797616666666662,-3.8409379166666664
1403715273792143104,0.068416906678177722,0.0048869219055841231,0.052359877559829883,8.0823140416666668,1.6916471249999998,-3.587599458333333
1403715273797143040,-0.013264502315156905,0.0090757121103705145,0.065624379874986788,9.4389006250000005,1.96133,-4.1841706666666667
1403715273802142976,-0.080983277292536876,0.021642082724729686,0.10681415022205297,8.572646541666666,1.2666922916666667,-3.6529771249999996
1403715273807142912,-0.12426744274199628,-0.016057029118347832,0.1270599695451872,9.1283567083333317,0.56388237500000005,-3.97169325
1403715273812143104,-0.12356931104119852,0.043284165449459372,0.099832833214075656,9.3408341249999989,-0.49850470833333332,-3.3179165833333331
1403715273817143040,-0.075398223686155036,-0.0062831853071795866,0.11309733552923257,8.5971631666666664,-0.93163174999999998,-3.4650163333333333
1403715273822142976,-0.023736477827122883,0.0013962634015954637,0.065624379874986788,10.239777041666667,-1.6344416666666666,-3.8736267500000001
1403715273827142912,0.07749261878854824,0.069813170079773182,0.031415926535897934,8.9976013749999986,-1.6998193333333333,-3.5712550416666669
1403715273832143104,0.143116998663535,0.0069813170079773184,0.046774823953448029,8.2457582083333332,-0.37592158333333331,-3.3015721666666664
1403715273837143040,0.13753194505715316,0.028623399732707,0.058643062867009467,9.4797616666666666,1.3320699583333333,-3.8409379166666664
1403715273842142976,0.052359877559829883,0.016755160819145562,0.07749261878854824,8.6625408333333329,2.132946375,-3.8899711666666663
1403715273847142912,-0.039793506945470715,0.012566370614359173,0.066322511575784518,9.5042782916666653,1.6262694583333333,-4.1351374166666668
1403715273852143104,-0.08377580409572781,0.046774823953448029,0.08237954069413235,8.5808187499999988,0.20430520833333332,-3.3914664583333329
1403715273857143040,-0.068416906678177722,-0.0013962634015954637,0.099134701513277898,8.6053353749999992,-0.38409379166666668,-3.6938381666666662
1403715273862142976,-0.044680428851054839,0.016057029118347832,0.089360857702109678,9.5451393333333332,-0.26968287499999999,-3.5957716666666664
1403715273867142912,-0.02583087292951608,0.021642082724729686,0.07609635538695278,8.8668460416666655,-0.13892754166666665,-3.6039438749999997
1403715273872143104,-0.010471975511965976,0.0027925268031909274,0.064228116473391328,9.0711512499999998,-0.29419949999999995,-3.6693215416666662
1403715273877143040,0.0048869219055841231,0.020245819323134219,0.07819075048934597,9.2100787916666658,-0.10623870833333333,-3.6938381666666662
1403715273882142976,0.0153588974175501,0.020245819323134219,0.071907565182166372,8.6135075833333321,0.18796079166666665,-3.5549106249999998
1403715273887142912,0.018151424220741029,0.00069813170079773186,0.090058989402907408,9.3081452916666674,0.3350605416666666,-3.7510436249999999
1403715273892143104,0.0027925268031909274,0.034208453339088861,0.094247779607693802,9.3244897083333331,0.3105439166666667,-3.7837324583333327
1403715273897143040,-0.0076794487087750501,0.020245819323134219,0.11309733552923257,8.6952296666666662,0.51484912499999991,-3.702010375
1403715273902142976,-0.019547687622336492,0.020245819323134219,0.1096066770252439,9.2345954166666662,0.18796079166666665,-3.702010375
1403715273907142912,-0.012566370614359173,0.034906585039886591,0.097738438111682452,9.1283567083333317,-0.58022679166666657,-3.6039438749999997
1403715273912143104,0.032114058236695664,0.017453292519943295,0.067020643276582248,9.0221180000000007,-1.2176590416666666,-3.6366327083333334
1403715273917143040,0.085870199198121014,0.020943951023931952,0.05375614096142535,9.3571785416666664,-0.25333845833333329,-3.702010375
1403715273922142976,0.07819075048934597,0.02722713633111154,0.043284165449459372,8.7360907083333323,1.0950759166666666,-3.8082490833333327
1403715273927142912,0.018151424220741029,0.018849555921538759,0.034208453339088861,9.0384624166666665,1.5854084166666664,-3.8409379166666664
1403715273932143104,-0.050963614158234416,0.01117010721276371,0.071209433481368656,8.9322237083333338,1.6998193333333333,-3.7673880416666665
1403715273937143040,-0.12356931104119852,0.0055850536063818549,0.084473935796525554,9.0711512499999998,1.1359369583333332,-3.7837324583333327
1403715273942142976,-0.13892820845874865,0.014660765716752367,0.10890854532444616,9.1283567083333317,-0.13892754166666665,-3.5630828333333331
1403715273947142912,-0.10053096491487339,0.023736477827122883,0.087266462599716474,9.0139457916666661,-1.6017528333333333,-3.4977051666666665
1403715273952143104,0.0,0.033510321638291124,0.097040306410884708,9.2918008749999998,-1.838746875,-3.3506054166666663
1403715273957143040,0.076794487087750496,0.028623399732707,0.10262536001726656,9.0711512499999998,-0.73549874999999998,-3.6448049166666663
1403715273962142976,0.090757121103705138,0.037699111843077518,0.071209433481368656,9.2019065833333329,0.27785508333333331,-3.6611493333333334
1403715273967142912,0.075398223686155036,0.035604716740684328,0.080983277292536876,8.6053353749999992,0.22882183333333334,-3.6448049166666663
1403715273972143104,0.08307767239493008,-0.0013962634015954637,0.075398223686155036,9.0629790416666669,-0.29419949999999995,-3.7265269999999999
1403715273977143040,0.10402162341886204,0.031415926535897934,0.076794487087750496,9.2836286666666652,-0.35957716666666667,-3.7837324583333327
1403715273982142976,0.11798425743481668,0.0097738438111682462,0.069115038378975438,8.9894291666666657,1.0950759166666666,-3.8082490833333327
1403715273987142912,0.020245819323134219,0.032812189937493394,0.060039326268604934,9.1201845000000006,2.4843513333333336,-3.92266
1403715273992143104,-0.12147491593880534,0.0069813170079773184,0.07749261878854824,8.7279184999999995,3.3751220416666667,-3.906315583333333
1403715273997143040,-0.25481807079117208,0.019547687622336492,0.08377580409572781,9.4797616666666666,2.2064962499999998,-4.0288987083333332
1403715274002142976,-0.29042278753185646,0.022340214425527419,0.10053096491487339,8.7197462916666666,-0.63743225000000003,-3.2770555416666665
1403715274007142912,-0.18709929581379212,-0.0020943951023931952,0.10890854532444616,9.2509398333333337,-3.3179165833333331,-3.5058773749999999
1403715274012143104,0.014660765716752367,0.041189770347066175,0.091455252804502868,8.9322237083333338,-4.3394426250000002,-2.9828560416666661
1403715274017143040,0.2059488517353309,0.016057029118347832,0.07749261878854824,9.3735229583333322,-2.9174783749999995,-3.702010375
1403715274022142976,0.2918190509334519,0.0307177948351002,0.065624379874986788,9.5533115416666661,-0.073549874999999987,-3.857282333333333
1403715274027142912,0.22759093446006054,0.067020643276582248,0.025132741228718346,8.9240514999999991,2.1574629999999999,-4.0125542916666666
1403715274032143104,0.11030480872604163,0.034208453339088861,0.039793506945470715,8.1558639166666662,2.9174783749999995,-3.6448049166666663
1403715274037143040,-0.014660765716752367,0.0020943951023931952,0.072605696882964116,9.1283567083333317,2.1166019583333333,-4.0534153333333327
1403715274042142976,-0.10681415022205297,0.00069813170079773186,0.12426744274199628,9.0302902083333318,1.1604535833333331,-3.9390044166666667
1403715274047142912,-0.14381513036433274,0.0097738438111682462,0.12356931104119852,9.0629790416666669,0.51484912499999991,-3.8736267500000001
1403715274052143104,-0.13962634015954636,0.023038346126325153,0.14870205226991687,9.0548068333333322,-0.14709974999999997,-3.4813607499999994
1403715274057143040,-0.12007865253720987,0.016057029118347832,0.10821041362364843,9.4389006250000005,-0.91528733333333334,-3.7837324583333327
1403715274062142976,-0.056548667764616284,0.041887902047863905,0.080285145591739146,9.3898673749999997,-1.4546530833333333,-3.5303939999999998
1403715274067142912,0.024434609527920613,0.032812189937493394,0.062133721370998138,9.0221180000000007,-1.5445473749999998,-3.4568441249999995
1403715274072143104,0.10262536001726656,0.041189770347066175,0.046774823953448029,9.242767624999999,-1.3974476249999999,-3.6121160833333334
1403715274077143040,0.1556833692778942,0.039793506945470715,0.061435589670200401,8.7524351249999999,-0.35140495833333335,-3.67749375
1403715274082142976,0.14102260356114182,0.044680428851054839,0.064228116473391328,9.3571785416666664,1.3484143749999999,-3.9880376666666666
1403715274087142912,0.064228116473391328,0.043284165449459372,0.085172067497323284,8.7197462916666666,2.0430520833333334,-3.7428714166666661
1403715274092143104,-0.030019663134302467,0.019547687622336492,0.090058989402907408,8.5971631666666664,1.838746875,-3.8164212916666664
1403715274097143040,-0.114493598930828,0.0069813170079773184,0.093549647906896058,9.0057735833333332,0.85808187499999988,-3.6529771249999996
1403715274102142976,-0.13194689145077129,0.0090757121103705145,0.10611601852125524,9.0057735833333332,0.081722083333333334,-3.7101825833333333
1403715274107142912,-0.1075122819228507,0.0041887902047863905,0.1096066770252439,9.2754564583333323,-0.55571016666666662,-3.6366327083333334
1403715274112143104,-0.069813170079773182,0.023736477827122883,0.10681415022205297,8.9812569583333328,-0.97249279166666658,-3.3914664583333329
1403715274117143040,0.0027925268031909274,0.0041887902047863905,0.10053096491487339,9.0139457916666661,-1.3075533333333333,-3.4078108749999996
1403715274122142976,0.067020643276582248,0.010471975511965976,0.07749261878854824,9.6268614166666655,-1.1441091666666665,-3.7101825833333333
1403715274127142912,0.10402162341886204,0.042586033748661642,0.05166174585903216,9.2264232083333333,-0.31871612500000002,-3.6202882916666663
1403715274132143104,0.11239920382843484,0.020943951023931952,0.050963614158234416,8.7360907083333323,0.34323275000000003,-3.67749375
1403715274137143040,0.08377580409572781,0.035604716740684328,0.064926248174189058,9.1855621666666654,1.1277647500000001,-3.7183547916666662
1403715274142142976,0.036302848441482058,0.02722713633111154,0.092153384505300612,8.5889909583333335,1.5608917916666667,-3.6202882916666663
1403715274147142912,-0.032114058236695664,0.0027925268031909274,0.10192722831646883,9.1447011249999992,1.2748645000000001,-3.7837324583333327
1403715274152143104,-0.091455252804502868,0.0055850536063818549,0.094945911308491532,8.9240514999999991,0.50667691666666659,-3.6448049166666663
1403715274157143040,-0.090058989402907408,-0.008377580409572781,0.084473935796525554,9.0629790416666669,-0.48216029166666663,-3.6611493333333334
1403715274162142976,-0.046774823953448029,0.016755160819145562,0.078888882190143686,9.4470728333333334,-0.89077070833333327,-3.7101825833333333
1403715274167142912,0.0055850536063818549,0.019547687622336492,0.078888882190143686,8.9567403333333324,-0.66194887499999999,-3.5712550416666669
1403715274172143104,0.032812189937493394,0.014660765716752367,0.07958701389094143,9.0057735833333332,-0.18796079166666665,-3.5712550416666669
1403715274177143040,0.0307177948351002,0.018151424220741029,0.088662726001311934,8.8750182500000001,0.3350605416666666,-3.67749375
1403715274182142976,0.01117010721276371,0.0076794487087750501,0.088662726001311934,9.0057735833333332,0.42495483333333334,-3.6856659583333333
1403715274187142912,0.0,0.020245819323134219,0.090058989402907408,9.3735229583333322,0.14709974999999997,-3.92266
1403715274192143104,0.008377580409572781,0.031415926535897934,0.073303828583761846,9.0221180000000007,-0.49850470833333332,-3.587599458333333
1403715274197143040,0.043982297150257102,0.02652900463031381,0.078888882190143686,9.1692177499999996,-0.49850470833333332,-3.6529771249999996
1403715274202142976,0.070511301780570912,0.034208453339088861,0.067020643276582248,8.9485681249999995,0.065377666666666667,-3.6202882916666663
1403715274207142912,0.046076692252650306,0.013264502315156905,0.065624379874986788,8.9158792916666663,1.1522813749999998,-3.7919046666666665
1403715274212143104,-0.013962634015954637,0.020943951023931952,0.074700091985357306,8.9649125416666671,1.4628252916666666,-3.8491101249999997
1403715274217143040,-0.075398223686155036,0.0041887902047863905,0.073303828583761846,9.0139457916666661,0.98883720833333322,-3.7919046666666665
1403715274222142976,-0.093549647906896058,0.0041887902047863905,0.084473935796525554,9.193734375,0.10623870833333333,-3.702010375
1403715274227142912,-0.074700091985357306,0.011868238913561441,0.076794487087750496,9.0548068333333322,-0.71915433333333334,-3.5467384166666669
1403715274232143104,-0.024434609527920613,0.011868238913561441,0.070511301780570912,9.1855621666666654,-0.99700941666666665,-3.6121160833333334
1403715274237143040,0.021642082724729686,0.02722713633111154,0.067020643276582248,9.1773899583333325,-0.57205458333333326,-3.4731885416666666
1403715274242142976,0.042586033748661642,0.016057029118347832,0.062831853071795868,8.8423294166666651,-0.24516625,-3.6121160833333334
1403715274247142912,0.049567350756638949,0.013264502315156905,0.065624379874986788,8.8668460416666655,0.27785508333333331,-3.4813607499999994
1403715274252143104,0.037699111843077518,0.0013962634015954637,0.069115038378975438,9.0711512499999998,0.42495483333333334,-3.7510436249999999
1403715274257143040,0.013264502315156905,0.0034906585039886592,0.078888882190143686,8.8668460416666655,0.42495483333333334,-3.6856659583333333
1403715274262142976,-0.0041887902047863905,-0.0013962634015954637,0.086568330898918744,9.242767624999999,0.58839899999999989,-3.8654545416666664
1403715274267142912,-0.020943951023931952,0.010471975511965976,0.094247779607693802,9.0874956666666655,0.45764366666666667,-3.7592158333333332
1403715274272143104,-0.043982297150257102,0.0076794487087750501,0.085172067497323284,8.9976013749999986,0.38409379166666668,-3.6856659583333333
1403715274277143040,-0.046076692252650306,0.00069813170079773186,0.098436569812480182,9.0629790416666669,0.032688833333333334,-3.6856659583333333
1403715274282142976,-0.036302848441482058,0.0,0.087266462599716474,8.8913626666666659,-0.29419949999999995,-3.5467384166666669
1403715274287142912,-0.012566370614359173,-0.0055850536063818549,0.088662726001311934,9.2591120416666666,-0.40861041666666664,-3.7346992083333332
1403715274292143104,0.012566370614359173,0.0055850536063818549,0.073303828583761846,9.2836286666666652,-0.3350605416666666,-3.7673880416666665
1403715274297143040,0.032812189937493394,0.016755160819145562,0.065624379874986788,9.2754564583333323,-0.15527195833333335,-3.7510436249999999
1403715274302142976,0.041887902047863905,0.029321531433504733,0.057246799465414,9.0711512499999998,0.18796079166666665,-3.7592158333333332
1403715274307142912,0.033510321638291124,0.037000980142279788,0.055850536063818547,9.1120122916666659,0.60474341666666664,-3.8327657083333331
1403715274312143104,0.0027925268031909274,0.037699111843077518,0.074001960284559576,8.834157208333334,0.68646550000000006,-3.6693215416666662
1403715274317143040,-0.024434609527920613,0.018849555921538759,0.070511301780570912,8.8259849999999993,0.51484912499999991,-3.7265269999999999
1403715274322142976,-0.041189770347066175,0.0076794487087750501,0.07958701389094143,8.9649125416666671,0.35140495833333335,-3.7510436249999999
1403715274327142912,-0.045378560551852569,0.014660765716752367,0.080285145591739146,9.1528733333333321,0.16344416666666667,-3.8000768749999998
1403715274332143104,-0.036302848441482058,0.028623399732707,0.074700091985357306,9.2345954166666662,-0.17978858333333333,-3.7919046666666665
1403715274337143040,-0.020943951023931952,0.037000980142279788,0.068416906678177722,9.2019065833333329,-0.3105439166666667,-3.702010375
1403715274342142976,0.0034906585039886592,0.040491638646268438,0.072605696882964116,9.1038400833333331,-0.37592158333333331,-3.5712550416666669
1403715274347142912,0.02583087292951608,0.037699111843077518,0.080983277292536876,8.793296166666666,-0.20430520833333332,-3.587599458333333
1403715274352143104,0.033510321638291124,0.019547687622336492,0.07609635538695278,9.0057735833333332,0.24516625,-3.6284604999999996
1403715274357143040,0.023736477827122883,0.016057029118347832,0.085870199198121014,9.0057735833333332,0.46581587499999999,-3.7346992083333332
1403715274362142976,0.00069813170079773186,0.010471975511965976,0.073303828583761846,9.0793234583333327,0.69463770833333327,-3.8082490833333327
1403715274367142912,-0.034208453339088861,0.020943951023931952,0.07749261878854824,9.4389006250000005,0.6292600416666666,-3.8736267500000001
1403715274372143104,-0.047472955654245766,0.034906585039886591,0.080285145591739146,8.9894291666666657,0.22064962499999999,-3.7265269999999999
1403715274377143040,-0.040491638646268438,0.02583087292951608,0.074700091985357306,8.9812569583333328,-0.4494714583333333,-3.4650163333333333
1403715274382142976,0.0076794487087750501,0.018151424220741029,0.08377580409572781,8.8750182500000001,-0.94797616666666662,-3.342433208333333
1403715274387142912,0.05305800926062762,0.0013962634015954637,0.062133721370998138,8.8259849999999993,-0.80087641666666665,-3.4078108749999996
1403715274392143104,0.084473935796525554,-0.008377580409572781,0.064926248174189058,9.2918008749999998,0.089894291666666667,-3.702010375
1403715274397143040,0.064228116473391328,0.0055850536063818549,0.056548667764616284,9.1692177499999996,0.97249279166666658,-3.8736267500000001
1403715274402142976,0.0062831853071795866,0.0153588974175501,0.068416906678177722,9.1447011249999992,1.6262694583333333,-3.9390044166666667
1403715274407142912,-0.065624379874986788,0.023736477827122883,0.091455252804502868,9.2836286666666652,1.4056198333333334,-3.8981433750000001
1403715274412143104,-0.12147491593880534,0.030019663134302467,0.097040306410884708,8.8750182500000001,0.13075533333333333,-3.5957716666666664
1403715274417143040,-0.099832833214075656,0.023038346126325153,0.11030480872604163,8.8505016249999997,-0.89077070833333327,-3.4404997083333333
1403715274422142976,-0.02583087292951608,0.0090757121103705145,0.097738438111682452,8.9322237083333338,-1.5200307499999999,-3.4650163333333333
1403715274427142912,0.05166174585903216,0.0041887902047863905,0.08377580409572781,9.0057735833333332,-1.2748645000000001,-3.4977051666666665
1403715274432143104,0.094247779607693802,0.01117010721276371,0.060737457969402671,9.4552450416666662,-0.35140495833333335,-3.8736267500000001
1403715274437143040,0.090757121103705138,0.031415926535897934,0.050963614158234416,9.2672842499999994,0.68646550000000006,-3.9798654583333328
1403715274442142976,0.05305800926062762,0.044680428851054839,0.061435589670200401,8.9649125416666671,1.1604535833333331,-3.7837324583333327
1403715274447142912,0.0020943951023931952,0.032812189937493394,0.074001960284559576,8.9240514999999991,1.2503478749999999,-3.702010375
1403715274452143104,-0.047472955654245766,0.030019663134302467,0.089360857702109678,8.8913626666666659,0.96432058333333326,-3.6856659583333333
1403715274457143040,-0.080285145591739146,0.024434609527920613,0.094945911308491532,9.1447011249999992,0.52302133333333334,-3.6121160833333334
1403715274462142976,-0.075398223686155036,0.018151424220741029,0.10053096491487339,8.9730847499999999,-0.23699404166666665,-3.5794272499999997
1403715274467142912,-0.065624379874986788,0.014660765716752367,0.067020643276582248,9.0139457916666661,-0.51484912499999991,-3.6448049166666663
1403715274472143104,-0.020943951023931952,0.023038346126325153,0.062133721370998138,9.471589458333332,-0.56388237500000005,-3.8000768749999998
1403715274477143040,0.018151424220741029,0.041189770347066175,0.061435589670200401,9.1120122916666659,-0.78453200000000001,-3.5957716666666664
1403715274482142976,0.049567350756638949,0.046076692252650306,0.057944931166211737,9.0139457916666661,-0.30237170833333332,-3.5140495833333332
1403715274487142912,0.069813170079773182,0.0307177948351002,0.075398223686155036,8.8178127916666664,0.0,-3.587599458333333
1403715274492143104,0.062831853071795868,0.02583087292951608,0.060039326268604934,8.9485681249999995,0.4903325,-3.7101825833333333
1403715274497143040,0.037000980142279788,0.012566370614359173,0.060737457969402671,8.9894291666666657,0.68646550000000006,-3.6121160833333334
1403715274502142976,-0.0048869219055841231,0.0013962634015954637,0.045378560551852569,9.0793234583333327,0.89894291666666659,-3.906315583333333
1403715274507142912,-0.041887902047863905,0.012566370614359173,0.05305800926062762,9.0057735833333332,0.72732654166666666,-3.7346992083333332
1403715274512143104,-0.060737457969402671,0.0153588974175501,0.072605696882964116,9.3571785416666664,0.11441091666666667,-3.8654545416666664
1403715274517143040,-0.057944931166211737,0.025132741228718346,0.092851516206098328,8.793296166666666,-0.057205458333333334,-3.7101825833333333
1403715274522142976,-0.045378560551852569,0.027925268031909273,0.10681415022205297,8.9812569583333328,-0.27785508333333331,-3.5222217916666665
1403715274527142912,-0.0097738438111682462,0.020943951023931952,0.10821041362364843,9.193734375,-0.46581587499999999,-3.6856659583333333
1403715274532143104,0.016057029118347832,0.013264502315156905,0.086568330898918744,8.8505016249999997,-0.52302133333333334,-3.4650163333333333
1403715274537143040,0.037000980142279788,0.0055850536063818549,0.075398223686155036,9.1855621666666654,-0.22882183333333334,-3.7101825833333333
1403715274542142976,0.047472955654245766,0.012566370614359173,0.067020643276582248,8.9158792916666663,-0.14709974999999997,-3.6529771249999996
1403715274547142912,0.049567350756638949,0.012566370614359173,0.069813170079773182,9.3735229583333322,0.31871612500000002,-3.8245934999999998
1403715274552143104,0.034208453339088861,0.02652900463031381,0.07958701389094143,9.1038400833333331,0.6292600416666666,-3.7265269999999999
1403715274557143040,0.0020943951023931952,0.025132741228718346,0.080983277292536876,8.9158792916666663,0.88259849999999995,-3.8000768749999998
1403715274562142976,-0.02583087292951608,0.016057029118347832,0.07609635538695278,9.0221180000000007,0.37592158333333331,-3.5712550416666669
1403715274567142912,-0.037000980142279788,0.022340214425527419,0.065624379874986788,9.1038400833333331,0.20430520833333332,-3.7510436249999999
1403715274572143104,-0.038397243543875248,0.0153588974175501,0.052359877559829883,9.0139457916666661,0.17978858333333333,-3.702010375
1403715274577143040,-0.042586033748661642,0.019547687622336492,0.061435589670200401,9.242767624999999,0.35957716666666667,-3.7837324583333327
1403715274582142976,-0.040491638646268438,0.037699111843077518,0.08168140899333462,8.9976013749999986,0.26968287499999999,-3.7837324583333327
1403715274587142912,-0.038397243543875248,0.018849555921538759,0.08168140899333462,8.8750182500000001,-0.27785508333333331,-3.4731885416666666
1403715274592143104,-0.011868238913561441,0.037000980142279788,0.092153384505300612,9.2836286666666652,-0.32688833333333334,-3.7837324583333327
1403715274597143040,0.022340214425527419,0.029321531433504733,0.084473935796525554,8.5808187499999988,-0.99700941666666665,-3.2933999583333331
1403715274602142976,0.069115038378975438,0.01117010721276371,0.069813170079773182,9.4552450416666662,-0.80904862499999997,-3.7101825833333333
1403715274607142912,0.10332349171806432,0.031415926535897934,0.074700091985357306,8.7606073333333327,-0.0081722083333333334,-3.5630828333333331
1403715274612143104,0.07749261878854824,0.0076794487087750501,0.049567350756638949,9.0874956666666655,0.95614837499999994,-3.7346992083333332
1403715274617143040,0.028623399732707,0.02583087292951608,0.066322511575784518,9.2836286666666652,1.4791697083333333,-3.8654545416666664
1403715274622142976,-0.041189770347066175,0.021642082724729686,0.062133721370998138,8.7769517500000003,1.1604535833333331,-3.7265269999999999
1403715274627142912,-0.080285145591739146,0.011868238913561441,0.075398223686155036,9.3244897083333331,0.5475379583333333,-3.8654545416666664
1403715274632143104,-0.085172067497323284,0.02583087292951608,0.10192722831646883,8.7115740833333319,-0.13892754166666665,-3.5222217916666665
1403715274637143040,-0.069115038378975438,0.016057029118347832,0.080285145591739146,9.2100787916666658,-0.66194887499999999,-3.4895329583333332
1403715274642142976,-0.019547687622336492,0.023736477827122883,0.08168140899333462,9.422556208333333,-0.84990966666666667,-3.7346992083333332
1403715274647142912,0.022340214425527419,0.020943951023931952,0.060039326268604934,8.7606073333333327,-0.57205458333333326,-3.5630828333333331
1403715274652143104,0.050265482457436693,0.025132741228718346,0.05375614096142535,9.6186892083333326,-0.21247741666666667,-3.857282333333333
1403715274657143040,0.059341194567807204,0.034208453339088861,0.049567350756638949,8.8259849999999993,-0.098066500000000001,-3.6366327083333334
1403715274662142976,0.058643062867009467,0.031415926535897934,0.052359877559829883,9.2100787916666658,0.37592158333333331,-3.8000768749999998
1403715274667142912,0.041887902047863905,0.044680428851054839,0.07609635538695278,9.0874956666666655,0.63743225000000003,-3.8164212916666664
1403715274672143104,0.00069813170079773186,0.032812189937493394,0.08237954069413235,8.5971631666666664,1.0950759166666666,-3.8654545416666664
1403715274677143040,-0.039793506945470715,0.025132741228718346,0.092153384505300612,9.2509398333333337,0.87442629166666663,-3.881798958333333
1403715274682142976,-0.073303828583761846,0.022340214425527419,0.097738438111682452,8.8423294166666651,0.31871612500000002,-3.5957716666666664
1403715274687142912,-0.071907565182166372,0.011868238913561441,0.099134701513277898,8.8668460416666655,-0.26151066666666667,-3.6202882916666663
1403715274692143104,-0.039793506945470715,0.016755160819145562,0.094247779607693802,9.1365289166666663,-0.73549874999999998,-3.4895329583333332
1403715274697143040,0.0062831853071795866,0.020943951023931952,0.08307767239493008,9.2836286666666652,-0.93163174999999998,-3.6202882916666663
1403715274702142976,0.050265482457436693,0.032114058236695664,0.08168140899333462,9.0384624166666665,-0.48216029166666663,-3.5712550416666669
1403715274707142912,0.065624379874986788,0.037699111843077518,0.069813170079773182,9.5451393333333332,0.089894291666666667,-3.7837324583333327
1403715274712143104,0.05166174585903216,0.050963614158234416,0.067718774977379978,8.7851239583333331,0.56388237500000005,-3.6366327083333334
1403715274717143040,0.018151424220741029,0.031415926535897934,0.058643062867009467,9.0384624166666665,0.85808187499999988,-3.6938381666666662
1403715274722142976,-0.011868238913561441,0.032812189937493394,0.074700091985357306,9.0629790416666669,0.63743225000000003,-3.6448049166666663
1403715274727142912,-0.038397243543875248,0.021642082724729686,0.071209433481368656,8.5072688749999994,0.4494714583333333,-3.5712550416666669
1403715274732143104,-0.044680428851054839,0.0034906585039886592,0.07958701389094143,9.0793234583333327,0.21247741666666667,-3.5549106249999998
1403715274737143040,-0.045378560551852569,-0.0020943951023931952,0.08307767239493008,8.9403959166666649,-0.122583125,-3.6938381666666662
1403715274742142976,-0.025132741228718346,0.0041887902047863905,0.071209433481368656,9.2754564583333323,-0.21247741666666667,-3.67749375
1403715274747142912,0.0,0.018849555921538759,0.08307767239493008,9.242767624999999,-0.22064962499999999,-3.702010375
1403715274752143104,0.0062831853071795866,0.030019663134302467,0.061435589670200401,9.0139457916666661,-0.13892754166666665,-3.5549106249999998
1403715274757143040,0.02722713633111154,0.016755160819145562,0.089360857702109678,8.9812569583333328,0.057205458333333334,-3.5712550416666669
1403715274762142976,0.025132741228718346,0.022340214425527419,0.067718774977379978,9.2100787916666658,-0.13892754166666665,-3.6121160833333334
1403715274767142912,0.033510321638291124,0.013962634015954637,0.092851516206098328,8.8668460416666655,0.34323275000000003,-3.5467384166666669
1403715274772143104,0.012566370614359173,0.0069813170079773184,0.067718774977379978,9.1120122916666659,0.30237170833333332,-3.7428714166666661
1403715274777143040,0.0013962634015954637,0.01117010721276371,0.084473935796525554,9.3163174999999985,0.58022679166666657,-3.92266
1403715274782142976,-0.016755160819145562,0.02583087292951608,0.07819075048934597,9.2918008749999998,0.35140495833333335,-3.881798958333333
1403715274787142912,-0.02722713633111154,0.037699111843077518,0.080983277292536876,9.1201845000000006,0.51484912499999991,-3.8164212916666664
1403715274792143104,-0.041887902047863905,0.034906585039886591,0.085870199198121014,8.6461964166666672,-0.032688833333333334,-3.6121160833333334
1403715274797143040,-0.030019663134302467,0.021642082724729686,0.078888882190143686,9.0956678750000002,-0.26968287499999999,-3.6121160833333334
1403715274802142976,-0.0027925268031909274,0.02583087292951608,0.091455252804502868,9.1283567083333317,-0.52302133333333334,-3.6529771249999996
1403715274807142912,0.013264502315156905,0.0153588974175501,0.069115038378975438,8.744262916666667,-0.13075533333333333,-3.5549106249999998
1403715274812143104,0.020943951023931952,0.0076794487087750501,0.069813170079773182,9.1773899583333325,0.0,-3.7510436249999999
1403715274817143040,0.030019663134302467,0.020943951023931952,0.070511301780570912,9.3408341249999989,0.27785508333333331,-3.8164212916666664
1403715274822142976,0.023736477827122883,0.039793506945470715,0.071907565182166372,9.422556208333333,0.56388237500000005,-3.9308322083333329
1403715274827142912,-0.0034906585039886592,0.042586033748661642,0.069115038378975438,8.7197462916666666,0.6701210833333332,-3.6202882916666663
1403715274832143104,-0.028623399732707,0.031415926535897934,0.065624379874986788,8.883190458333333,0.25333845833333329,-3.6039438749999997
1403715274837143040,-0.020943951023931952,0.02583087292951608,0.092153384505300612,8.9976013749999986,-0.15527195833333335,-3.6611493333333334
1403715274842142976,-0.012566370614359173,0.014660765716752367,0.089360857702109678,8.9158792916666663,-0.122583125,-3.6039438749999997
1403715274847142912,-0.016057029118347832,-0.00069813170079773186,0.095644043009289262,8.9812569583333328,0.25333845833333329,-3.7183547916666662
1403715274852143104,-0.016057029118347832,0.013264502315156905,0.08377580409572781,9.1365289166666663,-0.081722083333333334,-3.7346992083333332
1403715274857143040,-0.0013962634015954637,0.02583087292951608,0.07819075048934597,9.4961060833333324,-0.20430520833333332,-3.7346992083333332
1403715274862142976,0.012566370614359173,0.029321531433504733,0.066322511575784518,9.0139457916666661,-0.25333845833333329,-3.5385662083333331
1403715274867142912,0.014660765716752367,0.032812189937493394,0.056548667764616284,9.0629790416666669,0.13892754166666665,-3.6284604999999996
1403715274872143104,0.019547687622336492,0.018849555921538759,0.080285145591739146,8.8014683749999989,0.040861041666666667,-3.5712550416666669
1403715274877143040,0.019547687622336492,0.02652900463031381,0.087266462599716474,9.0384624166666665,0.040861041666666667,-3.6121160833333334
1403715274882142976,0.014660765716752367,0.013962634015954637,0.10611601852125524,8.9730847499999999,0.34323275000000003,-3.6448049166666663
1403715274887142912,-0.0153588974175501,0.01117010721276371,0.08377580409572781,9.1201845000000006,0.62108783333333339,-3.67749375
1403715274892143104,-0.032812189937493394,0.016057029118347832,0.080983277292536876,9.193734375,0.34323275000000003,-3.7428714166666661
1403715274897143040,-0.040491638646268438,0.017453292519943295,0.069115038378975438,9.0956678750000002,-0.17161637500000002,-3.6366327083333334
1403715274902142976,-0.013962634015954637,0.016057029118347832,0.067718774977379978,9.2100787916666658,-0.16344416666666667,-3.6284604999999996
1403715274907142912,0.0020943951023931952,0.018151424220741029,0.072605696882964116,8.883190458333333,-0.18796079166666665,-3.5957716666666664
1403715274912143104,0.016057029118347832,0.016755160819145562,0.078888882190143686,9.0302902083333318,-0.065377666666666667,-3.6448049166666663
1403715274917143040,0.02652900463031381,0.017453292519943295,0.099832833214075656,9.1855621666666654,-0.032688833333333334,-3.7510436249999999
1403715274922142976,0.021642082724729686,0.018151424220741029,0.080983277292536876,9.1038400833333331,0.3350605416666666,-3.67749375
1403715274927142912,0.0076794487087750501,0.020245819323134219,0.08237954069413235,9.2182509999999986,0.66194887499999999,-3.7673880416666665
1403715274932143104,-0.019547687622336492,0.023038346126325153,0.066322511575784518,8.8586738333333326,0.4494714583333333,-3.67749375
1403715274937143040,-0.018849555921538759,0.017453292519943295,0.070511301780570912,9.0629790416666669,0.0,-3.7346992083333332
1403715274942142976,-0.012566370614359173,0.0097738438111682462,0.070511301780570912,9.0874956666666655,-0.081722083333333334,-3.6856659583333333
1403715274947142912,-0.0034906585039886592,0.020943951023931952,0.080983277292536876,9.0057735833333332,0.16344416666666667,-3.6938381666666662
1403715274952143104,-0.0048869219055841231,0.0153588974175501,0.092153384505300612,8.9976013749999986,0.13892754166666665,-3.6938381666666662
1403715274957143040,-0.0013962634015954637,0.023736477827122883,0.087964594300514204,9.2509398333333337,-0.098066500000000001,-3.7919046666666665
1403715274962142976,0.0034906585039886592,0.02722713633111154,0.087266462599716474,9.193734375,0.0,-3.7183547916666662
1403715274967142912,-0.0034906585039886592,0.021642082724729686,0.069115038378975438,8.9567403333333324,0.122583125,-3.5630828333333331
1403715274972143104,-0.0041887902047863905,0.01117010721276371,0.071209433481368656,8.9240514999999991,0.15527195833333335,-3.6039438749999997
1403715274977143040,0.0013962634015954637,0.0069813170079773184,0.066322511575784518,9.0956678750000002,-0.13892754166666665,-3.7673880416666665
1403715274982142976,0.013962634015954637,0.019547687622336492,0.078888882190143686,9.2672842499999994,0.016344416666666667,-3.7592158333333332
1403715274987142912,0.012566370614359173,0.023736477827122883,0.08237954069413235,9.1283567083333317,0.17978858333333333,-3.7265269999999999
1403715274992143104,0.0027925268031909274,0.022340214425527419,0.091455252804502868,8.9649125416666671,0.44129924999999998,-3.8491101249999997
1403715274997143040,-0.014660765716752367,0.027925268031909273,0.087266462599716474,9.3081452916666674,0.26968287499999999,-3.8409379166666664
1403715275002142976,-0.018849555921538759,0.041189770347066175,0.08168140899333462,8.9485681249999995,0.04903325,-3.5467384166666669
1403715275007142912,-0.016755160819145562,0.020245819323134219,0.075398223686155036,8.8505016249999997,-0.122583125,-3.587599458333333
1403715275012143104,-0.008377580409572781,0.0069813170079773184,0.07958701389094143,8.8014683749999989,-0.081722083333333334,-3.6202882916666663
1403715275017143040,0.0055850536063818549,0.0097738438111682462,0.080983277292536876,9.1528733333333321,-0.17161637500000002,-3.6938381666666662
1403715275022142976,0.018849555921538759,0.023038346126325153,0.080983277292536876,9.193734375,-0.057205458333333334,-3.7346992083333332
1403715275027142912,0.019547687622336492,0.023038346126325153,0.069115038378975438,9.2182509999999986,0.17161637500000002,-3.7510436249999999
1403715275032143104,0.013264502315156905,0.038397243543875248,0.073303828583761846,9.1773899583333325,0.4903325,-3.7592158333333332
1403715275037143040,-0.0076794487087750501,0.034208453339088861,0.071907565182166372,8.9403959166666649,0.40861041666666664,-3.6938381666666662
1403715275042142976,-0.018849555921538759,0.032812189937493394,0.067020643276582248,8.9976013749999986,0.22882183333333334,-3.6448049166666663
1403715275047142912,-0.021642082724729686,0.021642082724729686,0.08307767239493008,8.8259849999999993,0.11441091666666667,-3.5467384166666669
1403715275052143104,-0.01117010721276371,0.010471975511965976,0.085870199198121014,8.9730847499999999,-0.016344416666666667,-3.5549106249999998
1403715275057143040,-0.0062831853071795866,0.0090757121103705145,0.085172067497323284,9.1528733333333321,-0.073549874999999987,-3.6611493333333334
1403715275062142976,0.0034906585039886592,0.017453292519943295,0.071907565182166372,9.1773899583333325,-0.032688833333333334,-3.6529771249999996
1403715275067142912,0.0090757121103705145,0.019547687622336492,0.068416906678177722,9.3571785416666664,0.065377666666666667,-3.7919046666666665
1403715275072143104,0.0090757121103705145,0.031415926535897934,0.07958701389094143,9.0302902083333318,0.3350605416666666,-3.6529771249999996
1403715275077143040,-0.00069813170079773186,0.029321531433504733,0.07609635538695278,9.0711512499999998,0.35957716666666667,-3.702010375
1403715275082142976,-0.010471975511965976,0.023736477827122883,0.080983277292536876,8.8995348749999987,0.21247741666666667,-3.5467384166666669
1403715275087142912,-0.0069813170079773184,0.023038346126325153,0.08168140899333462,9.0302902083333318,-0.032688833333333334,-3.5957716666666664
1403715275092143104,0.0034906585039886592,0.014660765716752367,0.10122909661567112,8.9567403333333324,0.057205458333333334,-3.6202882916666663
1403715275097143040,-0.0041887902047863905,0.012566370614359173,0.08377580409572781,8.9240514999999991,0.20430520833333332,-3.6448049166666663
1403715275102142976,-0.0020943951023931952,0.008377580409572781,0.085172067497323284,9.2672842499999994,0.15527195833333335,-3.7428714166666661
1403715275107142912,-0.0069813170079773184,0.012566370614359173,0.066322511575784518,9.1283567083333317,-0.024516625,-3.7510436249999999
1403715275112143104,0.0,0.022340214425527419,0.072605696882964116,9.1692177499999996,0.29419949999999995,-3.8164212916666664
1403715275117143040,-0.0055850536063818549,0.022340214425527419,0.071209433481368656,8.8913626666666659,0.122583125,-3.5712550416666669
1403715275122142976,-0.010471975511965976,0.020245819323134219,0.066322511575784518,9.2100787916666658,0.13075533333333333,-3.8245934999999998
1403715275127142912,-0.0055850536063818549,0.023736477827122883,0.07958701389094143,9.0221180000000007,-0.15527195833333335,-3.5957716666666664
1403715275132143104,0.0034906585039886592,0.020245819323134219,0.085172067497323284,9.0629790416666669,0.081722083333333334,-3.7101825833333333
1403715275137143040,0.0069813170079773184,0.013264502315156905,0.087266462599716474,8.9812569583333328,0.11441091666666667,-3.6202882916666663
1403715275142142976,0.00069813170079773186,0.010471975511965976,0.080983277292536876,9.1365289166666663,0.3350605416666666,-3.7592158333333332
1403715275147142912,-0.0027925268031909274,0.019547687622336492,0.070511301780570912,9.2509398333333337,0.17978858333333333,-3.8082490833333327
1403715275152143104,-0.0048869219055841231,0.017453292519943295,0.069813170079773182,8.9976013749999986,0.17978858333333333,-3.7510436249999999
1403715275157143040,-0.0062831853071795866,0.02583087292951608,0.071209433481368656,8.9894291666666657,0.13892754166666665,-3.6284604999999996
1403715275162142976,-0.013264502315156905,0.016057029118347832,0.078888882190143686,9.0629790416666669,0.196133,-3.7346992083333332
1403715275167142912,-0.0062831853071795866,0.02652900463031381,0.084473935796525554,9.1773899583333325,-0.057205458333333334,-3.7592158333333332
1403715275172143104,0.0034906585039886592,0.028623399732707,0.093549647906896058,9.0221180000000007,-0.081722083333333334,-3.6693215416666662
1403715275177143040,0.0090757121103705145,0.025132741228718346,0.087266462599716474,8.9894291666666657,-0.024516625,-3.587599458333333
1403715275182142976,0.0076794487087750501,0.020943951023931952,0.07819075048934597,9.1528733333333321,0.21247741666666667,-3.6693215416666662
1403715275187142912,0.0076794487087750501,0.017453292519943295,0.07609635538695278,9.0711512499999998,0.22882183333333334,-3.7428714166666661
1403715275192143104,-0.0034906585039886592,0.021642082724729686,0.063529984772593598,9.0548068333333322,0.16344416666666667,-3.6121160833333334
1403715275197143040,-0.0034906585039886592,0.016755160819145562,0.069813170079773182,9.1038400833333331,0.18796079166666665,-3.8000768749999998
1403715275202142976,-0.0097738438111682462,0.024434609527920613,0.068416906678177722,9.0548068333333322,0.20430520833333332,-3.5957716666666664
1403715275207142912,-0.01117010721276371,0.02652900463031381,0.085172067497323284,9.2019065833333329,0.11441091666666667,-3.7919046666666665
1403715275212143104,-0.010471975511965976,0.0307177948351002,0.08307767239493008,8.8096405833333318,0.024516625,-3.4650163333333333
1403715275217143040,-0.0048869219055841231,0.018151424220741029,0.08377580409572781,9.1120122916666659,-0.065377666666666667,-3.6284604999999996
1403715275222142976,0.0062831853071795866,0.022340214425527419,0.088662726001311934,9.0057735833333332,0.040861041666666667,-3.587599458333333
1403715275227142912,0.0055850536063818549,0.0097738438111682462,0.074001960284559576,8.9730847499999999,0.15527195833333335,-3.6448049166666663
1403715275232143104,0.0013962634015954637,0.016057029118347832,0.071209433481368656,9.0384624166666665,0.13892754166666665,-3.702010375
1403715275237143040,-0.0020943951023931952,0.013962634015954637,0.064228116473391328,9.0384624166666665,0.057205458333333334,-3.67749375
1403715275242142976,0.0034906585039886592,0.020245819323134219,0.078888882190143686,9.2918008749999998,0.15527195833333335,-3.8245934999999998
1403715275247142912,-0.0013962634015954637,0.023736477827122883,0.084473935796525554,8.8505016249999997,0.27785508333333331,-3.5549106249999998
1403715275252143104,-0.0069813170079773184,0.018151424220741029,0.088662726001311934,9.1692177499999996,0.17161637500000002,-3.7755602499999998
1403715275257143040,-0.0097738438111682462,0.024434609527920613,0.087266462599716474,8.9077070833333334,0.0081722083333333334,-3.6284604999999996
1403715275262142976,-0.0020943951023931952,0.025132741228718346,0.087964594300514204,9.2182509999999986,0.065377666666666667,-3.6856659583333333
1403715275267142912,0.0013962634015954637,0.022340214425527419,0.080285145591739146,8.9077070833333334,0.13892754166666665,-3.6284604999999996
1403715275272143104,-0.0055850536063818549,0.0097738438111682462,0.071907565182166372,8.9485681249999995,0.18796079166666665,-3.6693215416666662
1403715275277143040,0.0,0.011868238913561441,0.065624379874986788,9.1610455416666667,-0.089894291666666667,-3.7592158333333332
1403715275282142976,0.0062831853071795866,0.016755160819145562,0.07609635538695278,9.1855621666666654,0.065377666666666667,-3.7428714166666661
1403715275287142912,0.00069813170079773186,0.030019663134302467,0.071907565182166372,9.2019065833333329,0.21247741666666667,-3.7346992083333332
1403715275292143104,-0.0062831853071795866,0.024434609527920613,0.088662726001311934,8.9649125416666671,0.3350605416666666,-3.6611493333333334
1403715275297143040,-0.0062831853071795866,0.032114058236695664,0.07749261878854824,9.0548068333333322,0.065377666666666667,-3.67749375
1403715275302142976,-0.0055850536063818549,0.018151424220741029,0.090757121103705138,9.0629790416666669,-0.016344416666666667,-3.702010375
1403715275307142912,-0.0034906585039886592,0.02652900463031381,0.078888882190143686,9.0139457916666661,0.13075533333333333,-3.6448049166666663
1403715275312143104,-0.0020943951023931952,0.010471975511965976,0.07819075048934597,8.8586738333333326,0.20430520833333332,-3.6121160833333334
1403715275317143040,-0.0069813170079773184,0.0076794487087750501,0.074001960284559576,9.0793234583333327,-0.065377666666666667,-3.7428714166666661
1403715275322142976,0.0020943951023931952,0.016057029118347832,0.071907565182166372,9.0629790416666669,-0.065377666666666667,-3.7183547916666662
1403715275327142912,0.0069813170079773184,0.022340214425527419,0.075398223686155036,9.3081452916666674,0.18796079166666665,-3.8000768749999998
1403715275332143104,0.00069813170079773186,0.029321531433504733,0.078888882190143686,9.0057735833333332,0.41678262500000002,-3.6039438749999997
1403715275337143040,-0.0097738438111682462,0.02583087292951608,0.08168140899333462,9.1610455416666667,0.098066500000000001,-3.6938381666666662
1403715275342142976,-0.0069813170079773184,0.0307177948351002,0.07609635538695278,8.9403959166666649,-0.024516625,-3.6202882916666663
1403715275347142912,0.0013962634015954637,0.025132741228718346,0.08168140899333462,9.1201845000000006,0.122583125,-3.6448049166666663
1403715275352143104,0.0013962634015954637,0.021642082724729686,0.08168140899333462,8.8750182500000001,0.22882183333333334,-3.6039438749999997
1403715275357143040,-0.0041887902047863905,0.01117010721276371,0.068416906678177722,8.9240514999999991,0.13892754166666665,-3.6202882916666663
1403715275362142976,-0.0062831853071795866,0.0041887902047863905,0.069115038378975438,9.0874956666666655,-0.057205458333333334,-3.7183547916666662
1403715275367142912,0.0013962634015954637,0.0153588974175501,0.075398223686155036,9.1528733333333321,0.04903325,-3.7265269999999999
1403715275372143104,0.0055850536063818549,0.021642082724729686,0.08237954069413235,9.242767624999999,0.3350605416666666,-3.8000768749999998
1403715275377143040,-0.0062831853071795866,0.030019663134302467,0.08307767239493008,9.0057735833333332,0.29419949999999995,-3.67749375
1403715275382142976,-0.013962634015954637,0.02722713633111154,0.08168140899333462,9.1120122916666659,0.073549874999999987,-3.7183547916666662
1403715275387142912,-0.0062831853071795866,0.025132741228718346,0.085870199198121014,9.0384624166666665,0.024516625,-3.6529771249999996
1403715275392143104,0.0013962634015954637,0.028623399732707,0.08377580409572781,8.9649125416666671,0.089894291666666667,-3.6366327083333334
1403715275397143040,-0.0027925268031909274,0.021642082724729686,0.074700091985357306,9.0711512499999998,0.16344416666666667,-3.6448049166666663
1403715275402142976,-0.0048869219055841231,0.013264502315156905,0.069115038378975438,8.9730847499999999,-0.016344416666666667,-3.6039438749999997
1403715275407142912,0.0013962634015954637,0.0153588974175501,0.068416906678177722,9.1283567083333317,-0.024516625,-3.7673880416666665
1403715275412143104,0.008377580409572781,0.018151424220741029,0.080983277292536876,9.1773899583333325,0.25333845833333329,-3.8245934999999998
1403715275417143040,-0.0020943951023931952,0.0307177948351002,0.073303828583761846,9.1610455416666667,0.35957716666666667,-3.7101825833333333
1403715275422142976,-0.016057029118347832,0.02722713633111154,0.080285145591739146,9.1283567083333317,0.22064962499999999,-3.7183547916666662
1403715275427142912,-0.017453292519943295,0.031415926535897934,0.074700091985357306,8.9894291666666657,-0.024516625,-3.6284604999999996
1403715275432143104,-0.0069813170079773184,0.027925268031909273,0.076794487087750496,9.0221180000000007,0.024516625,-3.67749375
1403715275437143040,-0.0020943951023931952,0.020943951023931952,0.07958701389094143,8.9158792916666663,0.081722083333333334,-3.4895329583333332
1403715275442142976,-0.0034906585039886592,0.0153588974175501,0.069813170079773182,9.0057735833333332,0.024516625,-3.6693215416666662
1403715275447142912,0.0020943951023931952,0.011868238913561441,0.072605696882964116,8.9894291666666657,-0.024516625,-3.6611493333333334
1403715275452143104,0.01117010721276371,0.011868238913561441,0.07958701389094143,9.1283567083333317,0.11441091666666667,-3.7592158333333332
1403715275457143040,0.0020943951023931952,0.020245819323134219,0.07958701389094143,9.3571785416666664,0.23699404166666665,-3.7919046666666665
1403715275462142976,-0.0048869219055841231,0.031415926535897934,0.07819075048934597,8.9976013749999986,0.34323275000000003,-3.6448049166666663
1403715275467142912,-0.013962634015954637,0.024434609527920613,0.078888882190143686,9.0711512499999998,0.14709974999999997,-3.7101825833333333
1403715275472143104,-0.011868238913561441,0.02652900463031381,0.087964594300514204,8.9403959166666649,0.065377666666666667,-3.6448049166666663
1403715275477143040,-0.008377580409572781,0.02722713633111154,0.08307767239493008,9.0221180000000007,0.0081722083333333334,-3.6366327083333334
1403715275482142976,-0.0027925268031909274,0.013962634015954637,0.084473935796525554,9.0956678750000002,-0.032688833333333334,-3.587599458333333
1403715275487142912,0.00069813170079773186,0.012566370614359173,0.07749261878854824,8.9077070833333334,-0.057205458333333334,-3.6284604999999996
1403715275492143104,0.0090757121103705145,0.0041887902047863905,0.075398223686155036,9.1447011249999992,0.0081722083333333334,-3.702010375
1403715275497143040,0.012566370614359173,0.018849555921538759,0.080983277292536876,9.2182509999999986,0.27785508333333331,-3.7592158333333332
1403715275502142976,0.0,0.020943951023931952,0.069813170079773182,9.1855621666666654,0.28602729166666663,-3.702010375
1403715275507142912,-0.0090757121103705145,0.029321531433504733,0.076794487087750496,9.1120122916666659,0.37592158333333331,-3.8082490833333327
1403715275512143104,-0.013264502315156905,0.031415926535897934,0.073303828583761846,8.8995348749999987,0.17161637500000002,-3.6284604999999996
1403715275517143040,-0.0090757121103705145,0.030019663134302467,0.078888882190143686,8.9976013749999986,0.081722083333333334,-3.7265269999999999
1403715275522142976,-0.0062831853071795866,0.021642082724729686,0.08168140899333462,8.834157208333334,0.024516625,-3.5630828333333331
1403715275527142912,-0.0020943951023931952,0.019547687622336492,0.07609635538695278,9.0548068333333322,-0.04903325,-3.67749375
1403715275532143104,0.0027925268031909274,0.01117010721276371,0.07958701389094143,8.8750182500000001,-0.04903325,-3.6121160833333334
1403715275537143040,0.01117010721276371,0.0069813170079773184,0.073303828583761846,9.1120122916666659,0.065377666666666667,-3.7673880416666665
1403715275542142976,0.012566370614359173,0.020943951023931952,0.085172067497323284,9.2182509999999986,0.3105439166666667,-3.7510436249999999
1403715275547142912,0.00069813170079773186,0.023736477827122883,0.07609635538695278,9.0711512499999998,0.34323275000000003,-3.7183547916666662
1403715275552143104,-0.013264502315156905,0.029321531433504733,0.07749261878854824,9.1283567083333317,0.35140495833333335,-3.7346992083333332
1403715275557143040,-0.016057029118347832,0.028623399732707,0.085172067497323284,8.9567403333333324,0.16344416666666667,-3.6366327083333334
1403715275562142976,-0.013962634015954637,0.025132741228718346,0.07819075048934597,9.0057735833333332,-0.0081722083333333334,-3.7183547916666662
1403715275567142912,-0.0041887902047863905,0.018849555921538759,0.08237954069413235,8.8913626666666659,-0.024516625,-3.5957716666666664
1403715275572143104,0.0013962634015954637,0.013264502315156905,0.07958701389094143,9.0384624166666665,-0.040861041666666667,-3.6693215416666662
1403715275577143040,0.0097738438111682462,0.010471975511965976,0.07958701389094143,9.0139457916666661,0.0,-3.67749375
1403715275582142976,0.0097738438111682462,0.0097738438111682462,0.07609635538695278,9.0384624166666665,0.098066500000000001,-3.7673880416666665
1403715275587142912,0.0090757121103705145,0.018151424220741029,0.07958701389094143,9.2918008749999998,0.27785508333333331,-3.7919046666666665
1403715275592143104,-0.0027925268031909274,0.023736477827122883,0.074001960284559576,9.1201845000000006,0.3105439166666667,-3.7101825833333333
1403715275597143040,-0.016057029118347832,0.027925268031909273,0.07609635538695278,9.1038400833333331,0.28602729166666663,-3.7346992083333332
1403715275602142976,-0.013264502315156905,0.030019663134302467,0.07819075048934597,9.1038400833333331,0.089894291666666667,-3.6856659583333333
1403715275607142912,-0.01117010721276371,0.012566370614359173,0.07609635538695278,8.8995348749999987,0.0081722083333333334,-3.6284604999999996
1403715275612143104,-0.0041887902047863905,0.0153588974175501,0.080983277292536876,9.0302902083333318,-0.032688833333333334,-3.6039438749999997
1403715275617143040,0.0,0.011868238913561441,0.07958701389094143,8.9812569583333328,-0.098066500000000001,-3.6284604999999996
1403715275622142976,0.0069813170079773184,0.0097738438111682462,0.075398223686155036,9.0384624166666665,-0.081722083333333334,-3.6693215416666662
1403715275627142912,0.0153588974175501,0.010471975511965976,0.07609635538695278,9.2264232083333333,0.081722083333333334,-3.7592158333333332
1403715275632143104,0.0048869219055841231,0.024434609527920613,0.080983277292536876,9.1201845000000006,0.37592158333333331,-3.7183547916666662
1403715275637143040,-0.0048869219055841231,0.02652900463031381,0.078888882190143686,9.0548068333333322,0.3105439166666667,-3.6856659583333333
1403715275642142976,-0.011868238913561441,0.027925268031909273,0.07609635538695278,9.0629790416666669,0.26151066666666667,-3.7101825833333333
1403715275647142912,-0.012566370614359173,0.034208453339088861,0.07958701389094143,9.0139457916666661,0.073549874999999987,-3.7183547916666662
1403715275652143104,-0.0097738438111682462,0.023736477827122883,0.080285145591739146,8.8586738333333326,0.0081722083333333334,-3.5058773749999999
1403715275657143040,-0.0020943951023931952,0.022340214425527419,0.08377580409572781,8.9485681249999995,0.0,-3.5712550416666669
1403715275662142976,0.0055850536063818549,0.013264502315156905,0.07819075048934597,9.0139457916666661,-0.15527195833333335,-3.6202882916666663
1403715275667142912,0.013264502315156905,0.0048869219055841231,0.071907565182166372,9.1610455416666667,-0.0081722083333333334,-3.67749375
1403715275672143104,0.01117010721276371,0.017453292519943295,0.073303828583761846,9.1528733333333321,0.24516625,-3.7755602499999998
1403715275677143040,0.0048869219055841231,0.023736477827122883,0.07819075048934597,9.1120122916666659,0.36774937499999999,-3.6856659583333333
1403715275682142976,-0.0055850536063818549,0.025132741228718346,0.076794487087750496,9.1610455416666667,0.3105439166666667,-3.7428714166666661
1403715275687142912,-0.0153588974175501,0.02652900463031381,0.074700091985357306,9.1855621666666654,0.21247741666666667,-3.702010375
1403715275692143104,-0.013264502315156905,0.032812189937493394,0.080285145591739146,8.9158792916666663,0.032688833333333334,-3.6448049166666663
1403715275697143040,-0.010471975511965976,0.023038346126325153,0.07749261878854824,8.8913626666666659,0.0081722083333333334,-3.5630828333333331
1403715275702142976,-0.0013962634015954637,0.016057029118347832,0.07749261878854824,9.0629790416666669,-0.10623870833333333,-3.6202882916666663
1403715275707142912,0.010471975511965976,0.013962634015954637,0.07749261878854824,9.0139457916666661,-0.073549874999999987,-3.6693215416666662
1403715275712143104,0.013962634015954637,0.010471975511965976,0.074001960284559576,9.1447011249999992,0.065377666666666667,-3.7755602499999998
1403715275717143040,0.013264502315156905,0.020245819323134219,0.08377580409572781,8.9976013749999986,0.30237170833333332,-3.7346992083333332
1403715275722142976,0.0,0.023736477827122883,0.07749261878854824,9.1038400833333331,0.32688833333333334,-3.7346992083333332
1403715275727142912,-0.01117010721276371,0.022340214425527419,0.080285145591739146,9.2754564583333323,0.3350605416666666,-3.8000768749999998
1403715275732143104,-0.017453292519943295,0.0307177948351002,0.080285145591739146,9.1283567083333317,0.26968287499999999,-3.6529771249999996
1403715275737143040,-0.017453292519943295,0.02722713633111154,0.07819075048934597,8.883190458333333,0.032688833333333334,-3.6366327083333334
1403715275742142976,-0.01117010721276371,0.0153588974175501,0.080285145591739146,8.8913626666666659,-0.04903325,-3.5957716666666664
1403715275747142912,-0.00069813170079773186,0.012566370614359173,0.078888882190143686,9.1283567083333317,-0.196133,-3.67749375
1403715275752143104,0.0076794487087750501,0.012566370614359173,0.07958701389094143,9.0221180000000007,0.024516625,-3.7265269999999999
1403715275757143040,0.01117010721276371,0.020245819323134219,0.069813170079773182,9.0793234583333327,0.15527195833333335,-3.7673880416666665
1403715275762142976,0.01117010721276371,0.020943951023931952,0.075398223686155036,9.0466346249999994,0.31871612500000002,-3.6856659583333333
1403715275767142912,-0.0027925268031909274,0.020245819323134219,0.07819075048934597,9.1447011249999992,0.32688833333333334,-3.7265269999999999
1403715275772143104,-0.01117010721276371,0.027925268031909273,0.080983277292536876,9.2672842499999994,0.31871612500000002,-3.7265269999999999
1403715275777143040,-0.017453292519943295,0.02722713633111154,0.080983277292536876,8.8913626666666659,0.17161637500000002,-3.5957716666666664
1403715275782142976,-0.0153588974175501,0.020943951023931952,0.085870199198121014,8.9894291666666657,0.024516625,-3.7346992083333332
1403715275787142912,-0.014660765716752367,0.013264502315156905,0.076794487087750496,8.9730847499999999,-0.057205458333333334,-3.5303939999999998
1403715275792143104,-0.0020943951023931952,0.014660765716752367,0.078888882190143686,9.1855621666666654,-0.089894291666666667,-3.6938381666666662
1403715275797143040,0.0069813170079773184,0.012566370614359173,0.074700091985357306,9.0466346249999994,-0.089894291666666667,-3.7346992083333332
1403715275802142976,0.011868238913561441,0.017453292519943295,0.072605696882964116,9.0629790416666669,0.16344416666666667,-3.7428714166666661
1403715275807142912,0.014660765716752367,0.02652900463031381,0.07819075048934597,9.0956678750000002,0.28602729166666663,-3.6938381666666662
1403715275812143104,-0.0041887902047863905,0.023038346126325153,0.086568330898918744,9.1855621666666654,0.4903325,-3.7265269999999999
1403715275817143040,-0.014660765716752367,0.036302848441482058,0.08377580409572781,9.2100787916666658,0.29419949999999995,-3.7346992083333332
1403715275822142976,-0.020245819323134219,0.029321531433504733,0.075398223686155036,8.9730847499999999,0.057205458333333334,-3.5957716666666664
1403715275827142912,-0.012566370614359173,0.028623399732707,0.07819075048934597,8.9322237083333338,-0.016344416666666667,-3.702010375
1403715275832143104,-0.0048869219055841231,0.019547687622336492,0.072605696882964116,8.9485681249999995,-0.04903325,-3.5467384166666669
1403715275837143040,0.0055850536063818549,0.020245819323134219,0.074700091985357306,9.2100787916666658,-0.122583125,-3.8164212916666664
1403715275842142976,0.014660765716752367,0.023038346126325153,0.074001960284559576,9.1692177499999996,-0.073549874999999987,-3.7510436249999999
1403715275847142912,0.016057029118347832,0.034208453339088861,0.074700091985357306,9.1855621666666654,0.081722083333333334,-3.8164212916666664
1403715275852143104,0.012566370614359173,0.034208453339088861,0.085870199198121014,8.9730847499999999,0.47398808333333331,-3.67749375
1403715275857143040,-0.008377580409572781,0.030019663134302467,0.07609635538695278,9.2918008749999998,0.38409379166666668,-3.8164212916666664
1403715275862142976,-0.016755160819145562,0.037000980142279788,0.08237954069413235,8.9649125416666671,0.29419949999999995,-3.5957716666666664
1403715275867142912,-0.020943951023931952,0.02652900463031381,0.078888882190143686,8.9077070833333334,-0.13075533333333333,-3.6121160833333334
1403715275872143104,-0.014660765716752367,0.018151424220741029,0.07749261878854824,8.9894291666666657,-0.10623870833333333,-3.6039438749999997
1403715275877143040,0.0055850536063818549,0.017453292519943295,0.080285145591739146,9.0629790416666669,-0.14709974999999997,-3.6284604999999996
1403715275882142976,0.012566370614359173,0.019547687622336492,0.075398223686155036,9.3816951666666668,-0.098066500000000001,-3.8000768749999998
1403715275887142912,0.019547687622336492,0.033510321638291124,0.08168140899333462,9.0629790416666669,0.21247741666666667,-3.7101825833333333
1403715275892143104,0.0076794487087750501,0.029321531433504733,0.076794487087750496,9.0221180000000007,0.392266,-3.7101825833333333
1403715275897143040,-0.008377580409572781,0.033510321638291124,0.07749261878854824,9.2182509999999986,0.40043820833333332,-3.7755602499999998
1403715275902142976,-0.018151424220741029,0.02722713633111154,0.074001960284559576,8.8913626666666659,0.27785508333333331,-3.6366327083333334
1403715275907142912,-0.016755160819145562,0.022340214425527419,0.076794487087750496,9.1201845000000006,-0.14709974999999997,-3.7101825833333333
1403715275912143104,-0.008377580409572781,0.019547687622336492,0.074001960284559576,9.0384624166666665,-0.26968287499999999,-3.6529771249999996
1403715275917143040,0.0090757121103705145,0.02583087292951608,0.069813170079773182,9.422556208333333,-0.073549874999999987,-3.881798958333333
1403715275922142976,0.018151424220741029,0.05166174585903216,0.07749261878854824,9.643205833333333,0.26968287499999999,-3.9144877916666663
1403715275927142912,0.0020943951023931952,0.085870199198121014,0.070511301780570912,9.2182509999999986,0.41678262500000002,-4.0043820833333328
1403715275932143104,-0.018151424220741029,0.071907565182166372,0.063529984772593598,8.6053353749999992,0.23699404166666665,-3.5630828333333331
1403715275937143040,-0.020245819323134219,0.050963614158234416,0.074700091985357306,8.7197462916666666,0.22064962499999999,-3.5385662083333331
1403715275942142976,-0.0153588974175501,0.036302848441482058,0.076794487087750496,8.7279184999999995,-0.13075533333333333,-3.5957716666666664
1403715275947142912,-0.00069813170079773186,0.023736477827122883,0.093549647906896058,9.0793234583333327,0.16344416666666667,-3.7346992083333332
1403715275952143104,0.0041887902047863905,0.041887902047863905,0.089360857702109678,9.0956678750000002,0.098066500000000001,-3.6611493333333334
1403715275957143040,0.00069813170079773186,0.035604716740684328,0.076794487087750496,8.9485681249999995,0.0081722083333333334,-3.5303939999999998
1403715275962142976,0.0027925268031909274,0.022340214425527419,0.067020643276582248,8.8668460416666655,0.098066500000000001,-3.3506054166666663
1403715275967142912,0.0062831853071795866,0.0069813170079773184,0.073303828583761846,9.1120122916666659,-0.122583125,-3.5222217916666665
1403715275972143104,0.013264502315156905,0.013264502315156905,0.08307767239493008,9.2182509999999986,0.196133,-3.6366327083333334
1403715275977143040,0.0041887902047863905,0.031415926535897934,0.085870199198121014,9.471589458333332,0.40861041666666664,-3.7183547916666662
1403715275982142976,-0.013962634015954637,0.048869219055841226,0.076794487087750496,9.3735229583333322,0.13892754166666665,-3.8082490833333327
1403715275987142912,-0.016755160819145562,0.029321531433504733,0.071907565182166372,8.5644743333333331,0.065377666666666667,-3.3832942499999996
1403715275992143104,-0.0041887902047863905,0.018151424220741029,0.07749261878854824,9.2509398333333337,-0.17978858333333333,-3.5549106249999998
1403715275997143040,0.0097738438111682462,0.032114058236695664,0.093549647906896058,8.9322237083333338,0.122583125,-3.6693215416666662
1403715276002142976,0.0062831853071795866,0.020943951023931952,0.10611601852125524,9.2754564583333323,0.58839899999999989,-3.8164212916666664
1403715276007142912,-0.024434609527920613,0.037699111843077518,0.089360857702109678,9.1120122916666659,0.53936574999999998,-3.67749375
1403715276012143104,-0.040491638646268438,-0.0055850536063818549,0.075398223686155036,8.4255467916666653,-0.16344416666666667,-3.5467384166666669
1403715276017143040,-0.027925268031909273,-0.0027925268031909274,0.063529984772593598,9.3898673749999997,-0.31871612500000002,-3.702010375
1403715276022142976,0.0069813170079773184,0.013962634015954637,0.072605696882964116,9.3408341249999989,-0.51484912499999991,-3.6611493333333334
1403715276027142912,0.033510321638291124,0.043284165449459372,0.055850536063818547,9.1120122916666659,-0.17161637500000002,-3.702010375
1403715276032143104,0.032812189937493394,0.021642082724729686,0.047472955654245766,8.6543686249999983,0.17978858333333333,-3.4650163333333333
1403715276037143040,0.023736477827122883,0.010471975511965976,0.064228116473391328,8.7524351249999999,0.65377666666666667,-3.6202882916666663
1403715276042142976,0.0055850536063818549,0.0020943951023931952,0.080285145591739146,8.7851239583333331,0.91528733333333334,-3.587599458333333
1403715276047142912,-0.02722713633111154,0.024434609527920613,0.085870199198121014,9.3980395833333326,0.49850470833333332,-3.8654545416666664
1403715276052143104,-0.043284165449459372,0.016755160819145562,0.08168140899333462,8.433719,0.0,-3.2607111249999998
1403715276057143040,-0.020943951023931952,-0.031415926535897934,0.094247779607693802,8.744262916666667,-0.21247741666666667,-3.2933999583333331
1403715276062142976,0.0,-0.013962634015954637,0.097738438111682452,8.8178127916666664,-0.15527195833333335,-3.4650163333333333
1403715276067142912,0.01117010721276371,-0.036302848441482058,0.10681415022205297,9.3490063333333335,0.122583125,-3.7755602499999998
1403715276072143104,0.0097738438111682462,0.0062831853071795866,0.074700091985357306,9.3490063333333335,0.0081722083333333334,-3.7673880416666665
1403715276077143040,0.0055850536063818549,-0.0020943951023931952,0.062133721370998138,8.834157208333334,0.17978858333333333,-3.6121160833333334
1403715276082142976,-0.0013962634015954637,0.0027925268031909274,0.07609635538695278,9.4062117916666654,0.29419949999999995,-3.8082490833333327
1403715276087142912,-0.0013962634015954637,0.013264502315156905,0.087964594300514204,9.1692177499999996,0.31871612500000002,-3.8082490833333327
1403715276092143104,-0.0069813170079773184,0.05445427266222308,0.066322511575784518,8.9812569583333328,-0.13075533333333333,-3.7428714166666661
1403715276097143040,0.0055850536063818549,0.010471975511965976,0.07609635538695278,8.6543686249999983,-0.0081722083333333334,-3.5140495833333332
1403715276102142976,-0.0048869219055841231,0.00069813170079773186,0.058643062867009467,9.2100787916666658,0.14709974999999997,-3.9880376666666666
1403715276107142912,-0.012566370614359173,0.010471975511965976,0.080285145591739146,8.744262916666667,0.62108783333333339,-3.7510436249999999
1403715276112143104,-0.02583087292951608,0.023038346126325153,0.07819075048934597,9.3571785416666664,0.17978858333333333,-3.9798654583333328
1403715276117143040,-0.018849555921538759,0.032114058236695664,0.080983277292536876,8.5154410833333323,-0.41678262500000002,-3.2525389166666665
1403715276122142976,0.008377580409572781,-0.012566370614359173,0.08237954069413235,9.1610455416666667,-0.3105439166666667,-3.9880376666666666
1403715276127142912,0.019547687622336492,0.023736477827122883,0.07958701389094143,9.0466346249999994,0.35140495833333335,-3.6448049166666663
1403715276132143104,0.012566370614359173,0.020245819323134219,0.090757121103705138,9.3244897083333331,0.49850470833333332,-4.0207264999999994
1403715276137143040,-0.0055850536063818549,0.060737457969402671,0.08307767239493008,8.8995348749999987,0.032688833333333334,-3.5385662083333331
1403715276142142976,0.0,0.012566370614359173,0.080983277292536876,8.7851239583333331,-0.081722083333333334,-3.4568441249999995
1403715276147142912,0.0027925268031909274,0.020245819323134219,0.085870199198121014,9.5206227083333328,0.098066500000000001,-3.8245934999999998
1403715276152143104,0.0013962634015954637,0.024434609527920613,0.094247779607693802,8.6952296666666662,0.4494714583333333,-3.6284604999999996
1403715276157143040,-0.012566370614359173,0.046076692252650306,0.076794487087750496,9.7004112916666649,0.22064962499999999,-4.0452431249999998
1403715276162142976,-0.017453292519943295,0.037000980142279788,0.074001960284559576,8.572646541666666,0.17978858333333333,-3.2688833333333331
1403715276167142912,-0.016755160819145562,-0.0034906585039886592,0.056548667764616284,9.242767624999999,0.024516625,-3.7346992083333332
1403715276172143104,-0.008377580409572781,0.014660765716752367,0.067718774977379978,8.8423294166666651,0.065377666666666667,-3.5303939999999998
1403715276177143040,0.0020943951023931952,-0.0027925268031909274,0.074700091985357306,9.5124504999999999,-0.032688833333333334,-3.9962098749999995
1403715276182142976,0.0034906585039886592,0.043982297150257102,0.061435589670200401,9.2182509999999986,-0.016344416666666667,-3.7755602499999998
1403715276187142912,0.0048869219055841231,0.0097738438111682462,0.05445427266222308,8.7851239583333331,0.23699404166666665,-3.4568441249999995
1403715276192143104,-0.0027925268031909274,0.0069813170079773184,0.060039326268604934,9.0057735833333332,0.22064962499999999,-3.6284604999999996
1403715276197143040,0.0,-0.0048869219055841231,0.080983277292536876,8.9894291666666657,0.22882183333333334,-3.6693215416666662
1403715276202142976,0.00069813170079773186,0.025132741228718346,0.090757121103705138,9.6268614166666655,0.21247741666666667,-3.92266
1403715276207142912,0.00069813170079773186,0.035604716740684328,0.093549647906896058,8.8259849999999993,0.0,-3.5058773749999999
1403715276212143104,-0.0069813170079773184,0.016755160819145562,0.090757121103705138,9.0221180000000007,0.089894291666666667,-3.7265269999999999
1403715276217143040,-0.013962634015954637,0.018849555921538759,0.071907565182166372,8.7197462916666666,0.11441091666666667,-3.4486719166666666
1403715276222142976,0.0,-0.0013962634015954637,0.097040306410884708,9.0874956666666655,0.089894291666666667,-3.6448049166666663
1403715276227142912,0.0062831853071795866,0.032812189937493394,0.10611601852125524,9.6350336250000002,0.024516625,-3.7837324583333327
1403715276232143104,0.0027925268031909274,0.029321531433504733,0.092153384505300612,8.744262916666667,0.13892754166666665,-3.5630828333333331
1403715276237143040,0.0069813170079773184,0.014660765716752367,0.08237954069413235,9.0466346249999994,0.14709974999999997,-3.6202882916666663
1403715276242142976,0.0027925268031909274,0.022340214425527419,0.067020643276582248,8.7687795416666656,0.040861041666666667,-3.6202882916666663
1403715276247142912,0.0041887902047863905,-0.0027925268031909274,0.069115038378975438,9.0629790416666669,0.24516625,-3.6366327083333334
1403715276252143104,0.0013962634015954637,0.032812189937493394,0.080285145591739146,9.6350336250000002,0.40861041666666664,-3.9144877916666663
1403715276257143040,-0.016057029118347832,0.037000980142279788,0.074700091985357306,8.6952296666666662,0.38409379166666668,-3.6202882916666663
1403715276262142976,-0.023736477827122883,0.0041887902047863905,0.061435589670200401,8.6135075833333321,0.18796079166666665,-3.5385662083333331
1403715276267142912,-0.017453292519943295,0.016057029118347832,0.062133721370998138,9.2672842499999994,-0.18796079166666665,-3.6611493333333334
1403715276272143104,-0.00069813170079773186,0.00069813170079773186,0.060737457969402671,8.9730847499999999,-0.10623870833333333,-3.6366327083333334
1403715276277143040,0.0034906585039886592,0.016057029118347832,0.065624379874986788,9.7167557083333325,0.065377666666666667,-3.906315583333333
1403715276282142976,0.00069813170079773186,0.056548667764616284,0.07609635538695278,8.9403959166666649,0.26968287499999999,-3.5467384166666669
1403715276287142912,-0.0076794487087750501,0.010471975511965976,0.074700091985357306,8.572646541666666,0.10623870833333333,-3.4568441249999995
1403715276292143104,-0.008377580409572781,0.0062831853071795866,0.08307767239493008,9.1201845000000006,-0.024516625,-3.6693215416666662
1403715276297143040,0.0062831853071795866,-0.0076794487087750501,0.092153384505300612,9.0466346249999994,-0.024516625,-3.6856659583333333
1403715276302142976,0.013962634015954637,0.018151424220741029,0.094945911308491532,9.6840668749999992,0.14709974999999997,-4.0125542916666666
1403715276307142912,0.0034906585039886592,0.048869219055841226,0.087266462599716474,8.7851239583333331,0.31871612500000002,-3.6366327083333334
1403715276312143104,-0.011868238913561441,0.0097738438111682462,0.092851516206098328,8.9894291666666657,0.35140495833333335,-3.6448049166666663
1403715276317143040,-0.017453292519943295,0.020943951023931952,0.086568330898918744,9.0711512499999998,-0.057205458333333334,-3.6121160833333334
1403715276322142976,-0.010471975511965976,-0.0041887902047863905,0.092153384505300612,8.6380242083333325,-0.016344416666666667,-3.5957716666666664
1403715276327142912,0.0027925268031909274,-0.008377580409572781,0.097738438111682452,9.6595502499999988,-0.065377666666666667,-3.857282333333333
1403715276332143104,0.014660765716752367,0.05305800926062762,0.087266462599716474,9.6513780416666659,0.016344416666666667,-3.9798654583333328
1403715276337143040,0.008377580409572781,0.031415926535897934,0.067020643276582248,8.7115740833333319,0.13892754166666665,-3.4731885416666666
1403715276342142976,-0.0027925268031909274,0.0153588974175501,0.050265482457436693,9.1692177499999996,0.23699404166666665,-3.6202882916666663
1403715276347142912,-0.0055850536063818549,0.0153588974175501,0.069115038378975438,8.6952296666666662,0.16344416666666667,-3.7183547916666662
1403715276352143104,-0.0041887902047863905,-0.0055850536063818549,0.069115038378975438,9.4307284166666658,0.10623870833333333,-3.8491101249999997
1403715276357143040,-0.00069813170079773186,0.032812189937493394,0.074700091985357306,9.4307284166666658,0.30237170833333332,-3.8736267500000001
1403715276362142976,-0.0097738438111682462,0.041189770347066175,0.074700091985357306,8.7034018749999991,0.24516625,-3.702010375
1403715276367142912,-0.018151424220741029,0.027925268031909273,0.056548667764616284,9.1201845000000006,-0.040861041666666667,-3.4568441249999995
1403715276372143104,-0.01117010721276371,0.014660765716752367,0.065624379874986788,8.7279184999999995,-0.032688833333333334,-3.5385662083333331
1403715276377143040,-0.0048869219055841231,-0.0020943951023931952,0.067020643276582248,8.8586738333333326,0.0081722083333333334,-3.7265269999999999
1403715276382142976,-0.00069813170079773186,0.013264502315156905,0.092153384505300612,9.5287949166666657,0.0,-3.8491101249999997
1403715276387142912,0.0048869219055841231,0.034906585039886591,0.090058989402907408,9.2019065833333329,0.14709974999999997,-3.7428714166666661
1403715276392143104,0.0034906585039886592,0.031415926535897934,0.087964594300514204,8.9730847499999999,0.13075533333333333,-3.5385662083333331
1403715276397143040,0.0034906585039886592,0.029321531433504733,0.089360857702109678,8.9322237083333338,0.10623870833333333,-3.4650163333333333
1403715276402142976,0.00069813170079773186,0.0020943951023931952,0.074001960284559576,8.7034018749999991,-0.040861041666666667,-3.5712550416666669
1403715276407142912,0.0055850536063818549,-0.0041887902047863905,0.07749261878854824,9.0629790416666669,0.13892754166666665,-3.7101825833333333
1403715276412143104,0.0076794487087750501,0.021642082724729686,0.089360857702109678,9.4634172499999991,0.22882183333333334,-3.8899711666666663
1403715276417143040,0.00069813170079773186,0.030019663134302467,0.089360857702109678,9.0956678750000002,0.17978858333333333,-3.8409379166666664
1403715276422142976,-0.014660765716752367,0.034208453339088861,0.078888882190143686,9.0384624166666665,0.27785508333333331,-3.5794272499999997
1403715276427142912,-0.014660765716752367,0.030019663134302467,0.073303828583761846,9.0139457916666661,0.15527195833333335,-3.5794272499999997
1403715276432143104,-0.0069813170079773184,0.0097738438111682462,0.075398223686155036,8.6543686249999983,-0.28602729166666663,-3.3832942499999996
1403715276437143040,0.0,0.0,0.055850536063818547,9.3408341249999989,-0.23699404166666665,-3.8245934999999998
1403715276442142976,0.019547687622336492,0.019547687622336492,0.071907565182166372,9.2019065833333329,0.15527195833333335,-3.8327657083333331
1403715276447142912,0.018849555921538759,0.02652900463031381,0.085172067497323284,9.2345954166666662,0.49850470833333332,-3.9390044166666667
1403715276452143104,-0.0048869219055841231,0.041887902047863905,0.072605696882964116,9.1365289166666663,0.4903325,-3.6856659583333333
1403715276457143040,-0.02583087292951608,0.02583087292951608,0.074700091985357306,8.6870574583333333,0.31871612500000002,-3.5630828333333331
1403715276462142976,-0.020943951023931952,0.016057029118347832,0.07609635538695278,8.8750182500000001,-0.29419949999999995,-3.5058773749999999
1403715276467142912,-0.0020943951023931952,0.0062831853071795866,0.07609635538695278,9.3408341249999989,-0.32688833333333334,-3.7919046666666665
1403715276472143104,0.016755160819145562,0.0153588974175501,0.080983277292536876,9.2264232083333333,0.065377666666666667,-3.8491101249999997
1403715276477143040,0.014660765716752367,0.048869219055841226,0.085870199198121014,9.9047164999999993,0.40043820833333332,-4.1514818333333334
1403715276482142976,-0.0034906585039886592,0.062831853071795868,0.070511301780570912,8.9077070833333334,0.3105439166666667,-3.7346992083333332
1403715276487142912,-0.013264502315156905,0.042586033748661642,0.067718774977379978,9.0793234583333327,0.16344416666666667,-3.6611493333333334
1403715276492143104,-0.0020943951023931952,0.048171087355043489,0.069115038378975438,9.1610455416666667,-0.24516625,-3.6529771249999996
1403715276497143040,0.020245819323134219,0.028623399732707,0.088662726001311934,8.9730847499999999,-0.057205458333333334,-3.6938381666666662
1403715276502142976,0.02652900463031381,0.047472955654245766,0.10192722831646883,9.2182509999999986,0.60474341666666664,-3.8164212916666664
1403715276507142912,-0.0013962634015954637,0.049567350756638949,0.085172067497323284,8.9485681249999995,0.76001537499999994,-3.7346992083333332
1403715276512143104,-0.023736477827122883,0.031415926535897934,0.08168140899333462,9.0793234583333327,0.20430520833333332,-3.7673880416666665
1403715276517143040,-0.02652900463031381,0.032812189937493394,0.067718774977379978,8.9894291666666657,-0.21247741666666667,-3.5467384166666669
1403715276522142976,0.0027925268031909274,0.02583087292951608,0.07958701389094143,8.8586738333333326,-0.35140495833333335,-3.366949833333333
1403715276527142912,0.0307177948351002,0.010471975511965976,0.090058989402907408,9.2100787916666658,-0.18796079166666665,-3.5712550416666669
1403715276532143104,0.025132741228718346,0.037000980142279788,0.07958701389094143,9.1528733333333321,0.40861041666666664,-3.5630828333333331
1403715276537143040,-0.0069813170079773184,0.0048869219055841231,0.068416906678177722,8.7606073333333327,0.87442629166666663,-3.4568441249999995
1403715276542142976,-0.041887902047863905,0.0,0.055850536063818547,8.9485681249999995,0.48216029166666663,-3.5222217916666665
1403715276547142912,-0.042586033748661642,-0.0020943951023931952,0.076794487087750496,8.6707130416666658,0.0081722083333333334,-3.2933999583333331
1403715276552143104,-0.017453292519943295,-0.0062831853071795866,0.086568330898918744,9.4797616666666666,-0.73549874999999998,-3.7101825833333333
1403715276557143040,0.011868238913561441,0.033510321638291124,0.092153384505300612,8.9403959166666649,-0.44129924999999998,-3.5467384166666669
1403715276562142976,0.032812189937493394,0.0055850536063818549,0.071907565182166372,8.6952296666666662,-0.065377666666666667,-3.4977051666666665
1403715276567142912,0.039095375244672985,0.016057029118347832,0.071209433481368656,9.0466346249999994,0.35140495833333335,-3.6611493333333334
1403715276572143104,0.022340214425527419,0.010471975511965976,0.075398223686155036,8.8423294166666651,0.59657120833333332,-3.6039438749999997
1403715276577143040,-0.01117010721276371,0.025132741228718346,0.069813170079773182,9.0629790416666669,0.60474341666666664,-3.8654545416666664
1403715276582142976,-0.020943951023931952,0.016755160819145562,0.087964594300514204,8.6543686249999983,0.35957716666666667,-3.5549106249999998
1403715276587142912,-0.02652900463031381,-0.0090757121103705145,0.08307767239493008,8.8096405833333318,-0.10623870833333333,-3.6121160833333334
1403715276592143104,-0.013264502315156905,0.0013962634015954637,0.099832833214075656,9.0221180000000007,0.11441091666666667,-3.6121160833333334
1403715276597143040,-0.0153588974175501,0.0153588974175501,0.08168140899333462,9.2672842499999994,-0.0081722083333333334,-3.7183547916666662
1403715276602142976,-0.013264502315156905,0.018849555921538759,0.062133721370998138,9.0956678750000002,-0.11441091666666667,-3.5630828333333331
1403715276607142912,-0.0069813170079773184,0.0097738438111682462,0.069115038378975438,8.8178127916666664,-0.14709974999999997,-3.5222217916666665
1403715276612143104,0.0090757121103705145,0.0097738438111682462,0.07958701389094143,9.1447011249999992,-0.0081722083333333334,-3.7101825833333333
1403715276617143040,0.019547687622336492,0.024434609527920613,0.08168140899333462,9.332661916666666,0.081722083333333334,-3.7346992083333332
1403715276622142976,0.013962634015954637,0.045378560551852569,0.063529984772593598,9.2019065833333329,0.10623870833333333,-3.7837324583333327
1403715276627142912,0.0027925268031909274,0.034906585039886591,0.055850536063818547,9.0629790416666669,0.26151066666666667,-3.6039438749999997
1403715276632143104,-0.0041887902047863905,0.016057029118347832,0.080285145591739146,8.9485681249999995,0.35140495833333335,-3.8000768749999998
1403715276637143040,-0.013962634015954637,0.020245819323134219,0.090058989402907408,9.0302902083333318,0.44129924999999998,-3.702010375
1403715276642142976,-0.016755160819145562,0.043982297150257102,0.086568330898918744,9.0629790416666669,-0.073549874999999987,-3.8164212916666664
1403715276647142912,-0.0069813170079773184,0.0013962634015954637,0.078888882190143686,8.7851239583333331,-0.26151066666666667,-3.5303939999999998
1403715276652143104,-0.0027925268031909274,-0.0034906585039886592,0.070511301780570912,9.4307284166666658,0.073549874999999987,-3.906315583333333
1403715276657143040,-0.0055850536063818549,0.0076794487087750501,0.095644043009289262,8.7360907083333323,0.41678262500000002,-3.6284604999999996
1403715276662142976,-0.010471975511965976,0.0062831853071795866,0.096342174710086978,9.5778281666666665,-0.040861041666666667,-3.8327657083333331
1403715276667142912,-0.0020943951023931952,0.025132741228718346,0.085870199198121014,8.744262916666667,-0.32688833333333334,-3.342433208333333
1403715276672143104,0.019547687622336492,-0.0048869219055841231,0.065624379874986788,9.6513780416666659,-0.27785508333333331,-4.0207264999999994
1403715276677143040,0.020245819323134219,0.036302848441482058,0.069115038378975438,9.242767624999999,0.38409379166666668,-3.8327657083333331
1403715276682142976,0.0055850536063818549,0.023736477827122883,0.080285145591739146,9.0302902083333318,0.6701210833333332,-3.8491101249999997
1403715276687142912,-0.011868238913561441,0.064228116473391328,0.076794487087750496,9.1447011249999992,0.17161637500000002,-3.7346992083333332
1403715276692143104,-0.012566370614359173,0.0097738438111682462,0.075398223686155036,8.5889909583333335,0.04903325,-3.3260887916666664
1403715276697143040,-0.0069813170079773184,0.018849555921538759,0.066322511575784518,9.5614837499999989,0.073549874999999987,-4.0779319583333331
1403715276702142976,-0.011868238913561441,0.022340214425527419,0.067718774977379978,8.744262916666667,0.20430520833333332,-3.67749375
1403715276707142912,-0.0097738438111682462,0.039793506945470715,0.069115038378975438,9.4634172499999991,0.13892754166666665,-3.9635210416666666
1403715276712143104,-0.0048869219055841231,0.046076692252650306,0.071209433481368656,8.7851239583333331,-0.089894291666666667,-3.2361944999999999
1403715276717143040,0.0069813170079773184,-0.0034906585039886592,0.07958701389094143,9.4389006250000005,0.081722083333333334,-3.92266
1403715276722142976,0.0,0.035604716740684328,0.085870199198121014,8.8178127916666664,0.44129924999999998,-3.6611493333333334
1403715276727142912,-0.0041887902047863905,0.041189770347066175,0.090757121103705138,9.1692177499999996,0.24516625,-3.6938381666666662
1403715276732143104,-0.0076794487087750501,0.043982297150257102,0.086568330898918744,8.834157208333334,-0.0081722083333333334,-3.3342610000000001
1403715276737143040,-0.0055850536063818549,0.013962634015954637,0.080983277292536876,8.8096405833333318,0.057205458333333334,-3.4323274999999995
1403715276742142976,0.0048869219055841231,0.031415926535897934,0.092153384505300612,9.2672842499999994,0.13075533333333333,-3.7673880416666665
1403715276747142912,0.012566370614359173,0.037000980142279788,0.092851516206098328,9.1773899583333325,0.23699404166666665,-3.6448049166666663
1403715276752143104,0.0090757121103705145,0.050963614158234416,0.076794487087750496,8.8913626666666659,-0.024516625,-3.5549106249999998
1403715276757143040,0.0027925268031909274,0.023736477827122883,0.063529984772593598,8.6298519999999996,0.3350605416666666,-3.2688833333333331
1403715276762142976,0.0034906585039886592,0.016057029118347832,0.07958701389094143,9.3163174999999985,0.32688833333333334,-3.8000768749999998
1403715276767142912,-0.0090757121103705145,0.025132741228718346,0.085870199198121014,9.0548068333333322,0.29419949999999995,-3.906315583333333
1403715276772143104,-0.018849555921538759,0.035604716740684328,0.08307767239493008,8.8913626666666659,0.11441091666666667,-3.4241552916666667
1403715276777143040,-0.021642082724729686,-0.0013962634015954637,0.064926248174189058,8.6870574583333333,-0.25333845833333329,-2.9174783749999995
1403715276782142976,0.0027925268031909274,-0.016755160819145562,0.085870199198121014,9.6677224583333334,-0.089894291666666667,-3.6938381666666662
1403715276787142912,0.0027925268031909274,0.019547687622336492,0.087964594300514204,9.3898673749999997,0.16344416666666667,-3.9880376666666666
1403715276792143104,-0.01117010721276371,0.019547687622336492,0.07609635538695278,8.7606073333333327,0.04903325,-3.3914664583333329
1403715276797143040,-0.0034906585039886592,0.0,0.068416906678177722,8.9976013749999986,-0.21247741666666667,-3.366949833333333
1403715276802142976,0.011868238913561441,-0.010471975511965976,0.073303828583761846,9.422556208333333,0.016344416666666667,-3.5630828333333331
1403715276807142912,0.0153588974175501,0.031415926535897934,0.085870199198121014,9.6105169999999998,0.66194887499999999,-4.126965208333333
1403715276812143104,-0.0034906585039886592,0.039793506945470715,0.087964594300514204,8.4745800416666661,0.3350605416666666,-3.4977051666666665
1403715276817143040,-0.013962634015954637,-0.008377580409572781,0.069813170079773182,8.7197462916666666,0.040861041666666667,-3.7510436249999999
1403715276822142976,-0.0048869219055841231,0.0090757121103705145,0.080285145591739146,9.7004112916666649,0.16344416666666667,-3.8082490833333327
1403715276827142912,-0.008377580409572781,0.032114058236695664,0.075398223686155036,9.471589458333332,0.38409379166666668,-4.0043820833333328
1403715276832143104,-0.016755160819145562,0.052359877559829883,0.072605696882964116,8.3274802916666655,-0.34323275000000003,-3.4159830833333329
1403715276837143040,0.0062831853071795866,-0.01117010721276371,0.080285145591739146,8.8586738333333326,-0.26968287499999999,-3.6039438749999997
1403715276842142976,0.020943951023931952,0.0307177948351002,0.07958701389094143,10.027299624999999,0.122583125,-3.8981433750000001
1403715276847142912,-0.0013962634015954637,0.048171087355043489,0.071209433481368656,8.433719,0.30237170833333332,-3.5549106249999998
1403715276852143104,-0.019547687622336492,0.0062831853071795866,0.068416906678177722,8.7524351249999999,-0.0081722083333333334,-3.4895329583333332
1403715276857143040,0.0034906585039886592,0.0034906585039886592,0.10262536001726656,9.0711512499999998,-0.15527195833333335,-3.4486719166666666
1403715276862142976,0.0034906585039886592,0.031415926535897934,0.080285145591739146,9.7085834999999996,0.081722083333333334,-3.9553488333333329
1403715276867142912,-0.014660765716752367,0.035604716740684328,0.066322511575784518,8.6298519999999996,0.17978858333333333,-3.5222217916666665
1403715276872143104,-0.0153588974175501,0.0069813170079773184,0.064228116473391328,8.8505016249999997,-0.04903325,-3.4731885416666666
1403715276877143040,0.0090757121103705145,0.028623399732707,0.1054178868204575,9.8965442916666664,-0.40043820833333332,-3.8899711666666663
1403715276882142976,-0.0027925268031909274,0.086568330898918744,0.057246799465414,8.6870574583333333,0.24516625,-3.9308322083333329
1403715276887142912,-0.011868238913561441,0.033510321638291124,0.067020643276582248,8.4582356250000004,0.10623870833333333,-3.3914664583333329
1403715276892143104,0.013264502315156905,0.0020943951023931952,0.10262536001726656,9.2754564583333323,-0.40043820833333332,-3.5957716666666664
1403715276897143040,0.018849555921538759,0.075398223686155036,0.08307767239493008,9.5860003749999994,-0.032688833333333334,-4.1106207916666664
1403715276902142976,-0.0034906585039886592,0.040491638646268438,0.068416906678177722,8.1150028750000001,0.29419949999999995,-3.3914664583333329
1403715276907142912,-0.0020943951023931952,-0.0034906585039886592,0.087266462599716474,8.8178127916666664,0.196133,-3.2525389166666665
1403715276912143104,0.012566370614359173,0.025132741228718346,0.12356931104119852,9.5042782916666653,0.0081722083333333334,-3.587599458333333
1403715276917143040,-0.0048869219055841231,0.046076692252650306,0.075398223686155036,9.2509398333333337,-0.0081722083333333334,-3.8654545416666664
1403715276922142976,-0.023038346126325153,0.0,0.056548667764616284,8.3274802916666655,0.46581587499999999,-3.2688833333333331
1403715276927142912,-0.011868238913561441,-0.013264502315156905,0.090058989402907408,9.4634172499999991,0.15527195833333335,-3.6202882916666663
1403715276932143104,0.010471975511965976,0.055850536063818547,0.093549647906896058,9.6186892083333326,-0.098066500000000001,-4.0288987083333332
1403715276937143040,-0.0090757121103705145,0.048171087355043489,0.035604716740684328,8.5399577083333327,0.14709974999999997,-3.5630828333333331
1403715276942142976,0.0,0.01117010721276371,0.07819075048934597,9.4470728333333334,0.62108783333333339,-3.6121160833333334
1403715276947142912,0.008377580409572781,0.067718774977379978,0.093549647906896058,9.7412723333333329,-0.016344416666666667,-3.9144877916666663
1403715276952143104,-0.0041887902047863905,0.064926248174189058,0.060737457969402671,8.5889909583333335,0.040861041666666667,-3.7592158333333332
1403715276957143040,-0.0041887902047863905,0.0069813170079773184,0.062133721370998138,9.1447011249999992,0.065377666666666667,-3.9308322083333329
1403715276962142976,-0.00069813170079773186,0.057944931166211737,0.08168140899333462,9.5778281666666665,0.13075533333333333,-3.6529771249999996
1403715276967142912,-0.0034906585039886592,0.041887902047863905,0.07958701389094143,8.4173745833333324,-0.32688833333333334,-3.6039438749999997
1403715276972143104,-0.01117010721276371,-0.0055850536063818549,0.045378560551852569,8.6870574583333333,0.073549874999999987,-3.5957716666666664
1403715276977143040,-0.0013962634015954637,0.0076794487087750501,0.085172067497323284,9.6513780416666659,0.58839899999999989,-3.8491101249999997
1403715276982142976,-0.0090757121103705145,0.050963614158234416,0.090058989402907408,8.6053353749999992,0.35140495833333335,-3.4731885416666666
1403715276987142912,-0.020943951023931952,0.0,0.069813170079773182,8.8750182500000001,0.44129924999999998,-3.6529771249999996
1403715276992143104,0.0041887902047863905,0.0153588974175501,0.097738438111682452,9.7984777916666665,0.35957716666666667,-3.8327657083333331
1403715276997143040,0.0069813170079773184,0.064926248174189058,0.089360857702109678,8.9649125416666671,0.27785508333333331,-3.67749375
1403715277002142976,0.0062831853071795866,0.018151424220741029,0.074001960284559576,8.4990966666666665,0.34323275000000003,-3.2525389166666665
1403715277007142912,0.020943951023931952,0.010471975511965976,0.10890854532444616,9.5124504999999999,0.62108783333333339,-3.7510436249999999
1403715277012143104,0.008377580409572781,0.055152404363020817,0.094247779607693802,9.1773899583333325,0.3105439166666667,-3.6856659583333333
1403715277017143040,-0.008377580409572781,0.0062831853071795866,0.071907565182166372,8.1476917083333333,0.10623870833333333,-3.3015721666666664
1403715277022142976,-0.0027925268031909274,-0.036302848441482058,0.075398223686155036,9.3408341249999989,0.27785508333333331,-3.5712550416666669
1403715277027142912,-0.0027925268031909274,0.02583087292951608,0.091455252804502868,9.6350336250000002,0.17161637500000002,-3.947176625
1403715277032143104,-0.025132741228718346,0.018151424220741029,0.040491638646268438,8.4173745833333324,0.0081722083333333334,-3.1708168333333329
1403715277037143040,-0.013962634015954637,-0.060039326268604934,0.043982297150257102,8.7769517500000003,-0.18796079166666665,-3.6529771249999996
1403715277042142976,0.017453292519943295,0.014660765716752367,0.08237954069413235,9.7576167499999986,-0.11441091666666667,-3.8327657083333331
1403715277047142912,0.0097738438111682462,0.031415926535897934,0.063529984772593598,8.2866192499999993,0.29419949999999995,-3.5712550416666669
1403715277052143104,-0.0090757121103705145,-0.034208453339088861,0.084473935796525554,8.834157208333334,0.35957716666666667,-3.5630828333333331
1403715277057143040,0.0034906585039886592,0.050963614158234416,0.11868238913561441,10.215260416666666,0.196133,-4.2168595
1403715277062142976,-0.0069813170079773184,0.07958701389094143,0.1054178868204575,8.9485681249999995,-0.10623870833333333,-3.7919046666666665
1403715277067142912,-0.011868238913561441,0.013264502315156905,0.085870199198121014,8.2294137916666656,0.392266,-3.4404997083333333
1403715277072143104,0.0027925268031909274,0.032114058236695664,0.114493598930828,9.7984777916666665,0.04903325,-3.97169325
1403715277077143040,0.0020943951023931952,0.069813170079773182,0.092851516206098328,8.433719,-0.38409379166666668,-3.6121160833333334
1403715277082142976,0.0097738438111682462,-0.017453292519943295,0.049567350756638949,8.4255467916666653,0.081722083333333334,-3.5058773749999999
1403715277087142912,0.027925268031909273,-0.00069813170079773186,0.098436569812480182,9.5206227083333328,0.392266,-3.857282333333333
1403715277092143104,0.0013962634015954637,0.05445427266222308,0.063529984772593598,8.6625408333333329,0.23699404166666665,-3.7346992083333332
1403715277097143040,-0.024434609527920613,-0.0090757121103705145,0.037000980142279788,8.6380242083333325,0.34323275000000003,-3.2688833333333331
1403715277102142976,-0.0034906585039886592,0.0020943951023931952,0.088662726001311934,9.733100125,0.16344416666666667,-3.5467384166666669
1403715277107142912,-0.014660765716752367,0.068416906678177722,0.057246799465414,9.5124504999999999,-0.13075533333333333,-4.0452431249999998
1403715277112143104,-0.013264502315156905,0.02583087292951608,0.034906585039886591,8.793296166666666,-0.081722083333333334,-3.4486719166666666
1403715277117143040,0.0020943951023931952,0.019547687622336492,0.08237954069413235,9.3816951666666668,0.51484912499999991,-3.4404997083333333
1403715277122142976,-0.0027925268031909274,0.080285145591739146,0.090757121103705138,9.0956678750000002,0.04903325,-3.906315583333333
1403715277127142912,-0.017453292519943295,0.017453292519943295,0.057944931166211737,8.4582356250000004,-0.18796079166666665,-3.5140495833333332
1403715277132143104,-0.0020943951023931952,-0.0048869219055841231,0.08168140899333462,9.4634172499999991,0.196133,-3.6366327083333334
1403715277137143040,0.012566370614359173,0.059341194567807204,0.10122909661567112,9.2918008749999998,-0.122583125,-3.857282333333333
1403715277142142976,0.0020943951023931952,0.018849555921538759,0.060737457969402671,8.2457582083333332,-0.20430520833333332,-3.587599458333333
1403715277147142912,0.0062831853071795866,-0.024434609527920613,0.071209433481368656,9.5124504999999999,0.38409379166666668,-3.6039438749999997
1403715277152143104,0.01117010721276371,0.014660765716752367,0.090757121103705138,9.0384624166666665,0.13075533333333333,-3.9553488333333329
1403715277157143040,-0.0055850536063818549,-0.013962634015954637,0.058643062867009467,8.8178127916666664,-0.04903325,-4.2332039166666666
1403715277162142976,-0.0090757121103705145,0.0076794487087750501,0.080983277292536876,9.6677224583333334,0.76001537499999994,-4.0043820833333328
1403715277167142912,-0.017453292519943295,0.048171087355043489,0.096342174710086978,8.7687795416666656,0.040861041666666667,-3.7673880416666665
1403715277172143104,-0.016057029118347832,0.013264502315156905,0.055152404363020817,8.7524351249999999,-0.4494714583333333,-4.2332039166666666
1403715277177143040,0.01117010721276371,-0.00069813170079773186,0.08237954069413235,9.2754564583333323,0.35957716666666667,-4.0125542916666666
1403715277182142976,0.016057029118347832,0.057246799465414,0.1096066770252439,8.5808187499999988,0.057205458333333334,-3.7265269999999999
1403715277187142912,-0.00069813170079773186,-0.0097738438111682462,0.069813170079773182,8.1558639166666662,0.28602729166666663,-3.9962098749999995
1403715277192143104,0.010471975511965976,-0.0153588974175501,0.11030480872604163,9.4634172499999991,0.76001537499999994,-4.2904093749999994
1403715277197143040,-0.013264502315156905,0.063529984772593598,0.11100294042683936,8.834157208333334,-0.17161637500000002,-3.5712550416666669
1403715277202142976,-0.011868238913561441,-0.022340214425527419,0.08307767239493008,8.4582356250000004,-0.040861041666666667,-4.3067537916666661
1403715277207142912,0.023736477827122883,0.020943951023931952,0.092153384505300612,9.7085834999999996,0.16344416666666667,-4.1514818333333334
1403715277212143104,0.0048869219055841231,0.048869219055841226,0.08377580409572781,8.4010301666666667,-0.196133,-3.3179165833333331
1403715277217143040,0.0041887902047863905,-0.030019663134302467,0.055850536063818547,8.8995348749999987,0.31871612500000002,-3.6938381666666662
1403715277222142976,0.018151424220741029,0.023736477827122883,0.094247779607693802,9.9782663750000005,0.68646550000000006,-3.8327657083333331
1403715277227142912,-0.028623399732707,0.050265482457436693,0.050265482457436693,7.9433864999999999,0.18796079166666665,-3.1463002083333333
1403715277232143104,-0.032114058236695664,-0.050265482457436693,0.045378560551852569,8.5481299166666673,0.098066500000000001,-3.6693215416666662
1403715277237143040,-0.012566370614359173,0.0013962634015954637,0.090058989402907408,10.395049,0.44129924999999998,-3.97169325
1403715277242142976,-0.041189770347066175,0.048171087355043489,0.044680428851054839,8.253930416666666,-0.11441091666666667,-3.2852277500000002
1403715277247142912,-0.025132741228718346,-0.041189770347066175,0.05375614096142535,9.0874956666666655,-0.35140495833333335,-3.6202882916666663
1403715277252143104,0.014660765716752367,0.043284165449459372,0.11519173063162574,10.623870833333331,0.040861041666666667,-3.6938381666666662
1403715277257143040,-0.0041887902047863905,0.091455252804502868,0.07749261878854824,7.4367095833333323,-0.15527195833333335,-3.1544724166666662
1403715277262142976,0.01117010721276371,-0.014660765716752367,0.076794487087750496,9.3408341249999989,0.26151066666666667,-3.8491101249999997
1403715277267142912,0.031415926535897934,0.088662726001311934,0.11170107212763709,9.7249279166666671,0.34323275000000003,-4.3721314583333335
1403715277272143104,-0.0027925268031909274,0.022340214425527419,0.058643062867009467,7.1670267083333332,-0.0081722083333333334,-3.3914664583333329
1403715277277143040,0.0020943951023931952,-0.05305800926062762,0.080983277292536876,9.1038400833333331,0.42495483333333334,-4.0942763749999997
1403715277282142976,-0.0041887902047863905,0.056548667764616284,0.10821041362364843,9.6023447916666651,0.3105439166666667,-3.7755602499999998
1403715277287142912,-0.029321531433504733,-0.022340214425527419,0.069115038378975438,7.8616644166666658,-0.040861041666666667,-3.366949833333333
1403715277292143104,-0.01117010721276371,-0.057944931166211737,0.08168140899333462,9.9700941666666658,0.21247741666666667,-3.9962098749999995
1403715277297143040,-0.0090757121103705145,0.074001960284559576,0.1054178868204575,9.7249279166666671,0.26151066666666667,-3.8899711666666663
1403715277302142976,-0.020245819323134219,0.0069813170079773184,0.071907565182166372,8.0986584583333325,-0.122583125,-3.3914664583333329
1403715277307142912,-0.0027925268031909274,-0.025132741228718346,0.080983277292536876,9.9864385833333333,-0.18796079166666665,-4.1923428749999996
1403715277312143104,0.012566370614359173,0.095644043009289262,0.098436569812480182,8.7606073333333327,-0.040861041666666667,-3.6366327083333334
1403715277317143040,0.016057029118347832,-0.0020943951023931952,0.071209433481368656,8.1803805416666648,-0.24516625,-3.5385662083333331
1403715277322142976,0.0307177948351002,0.018151424220741029,0.072605696882964116,10.452254458333334,0.34323275000000003,-3.8981433750000001
1403715277327142912,0.012566370614359173,0.084473935796525554,0.069115038378975438,8.9894291666666657,0.25333845833333329,-3.7510436249999999
1403715277332143104,-0.008377580409572781,-0.037000980142279788,0.039793506945470715,8.0414529999999989,0.098066500000000001,-3.4404997083333333
1403715277337143040,-0.0090757121103705145,0.0,0.057246799465414,10.272465875,0.80904862499999997,-4.3149259999999998
1403715277342142976,-0.035604716740684328,0.071209433481368656,0.058643062867009467,8.5317854999999998,0.28602729166666663,-3.587599458333333
1403715277347142912,-0.046076692252650306,-0.056548667764616284,0.046076692252650306,8.253930416666666,-0.040861041666666667,-3.3097443750000002
1403715277352143104,-0.0153588974175501,0.016057029118347832,0.070511301780570912,10.566665374999998,0.15527195833333335,-4.1187929999999993
1403715277357143040,-0.0090757121103705145,0.060039326268604934,0.086568330898918744,8.3029636666666669,-0.4494714583333333,-3.2933999583333331
1403715277362142976,0.0076794487087750501,-0.048171087355043489,0.093549647906896058,9.1528733333333321,-0.065377666666666667,-3.7673880416666665
1403715277367142912,0.0307177948351002,0.091455252804502868,0.11239920382843484,9.9374053333333343,0.13892754166666665,-3.9553488333333329
1403715277372143104,0.02722713633111154,0.046076692252650306,0.097738438111682452,8.0169363750000002,-0.3350605416666666,-3.4486719166666666
1403715277377143040,0.046076692252650306,-0.018849555921538759,0.12077678423800758,9.332661916666666,0.43312704166666666,-3.7101825833333333
1403715277382142976,0.029321531433504733,0.1165879940332212,0.12147491593880534,9.2591120416666666,0.60474341666666664,-3.8491101249999997
1403715277387142912,-0.0076794487087750501,0.016057029118347832,0.07819075048934597,7.4203651666666666,0.40043820833333332,-3.3260887916666664
1403715277392143104,-0.011868238913561441,-0.039095375244672985,0.085172067497323284,9.9455775416666654,0.84990966666666667,-3.7510436249999999
1403715277397143040,-0.035604716740684328,0.089360857702109678,0.07819075048934597,9.1283567083333317,0.10623870833333333,-3.8327657083333331
1403715277402142976,-0.048171087355043489,-0.02652900463031381,0.020245819323134219,7.493915041666666,-0.17978858333333333,-3.1789890416666662
1403715277407142912,-0.020245819323134219,-0.0307177948351002,0.048171087355043489,10.174399375,0.36774937499999999,-3.7755602499999998
1403715277412143104,-0.021642082724729686,0.096342174710086978,0.05445427266222308,8.9240514999999991,-0.35140495833333335,-3.587599458333333
1403715277417143040,-0.0034906585039886592,-0.02722713633111154,0.048171087355043489,8.8096405833333318,0.057205458333333334,-3.366949833333333
1403715277422142976,0.023038346126325153,0.038397243543875248,0.097738438111682452,10.787315,0.23699404166666665,-3.92266
1403715277427142912,0.0090757121103705145,0.10402162341886204,0.086568330898918744,7.4857428333333322,-0.089894291666666667,-3.6611493333333334
1403715277432143104,0.023038346126325153,-0.046076692252650306,0.10821041362364843,9.0629790416666669,0.51484912499999991,-3.857282333333333
1403715277437143040,0.010471975511965976,0.11938052083641214,0.11100294042683936,10.305154708333331,0.23699404166666665,-3.9553488333333329
1403715277442142976,-0.0027925268031909274,0.050265482457436693,0.084473935796525554,7.1179934583333333,-0.24516625,-2.7213453750000003
1403715277447142912,0.0034906585039886592,-0.074001960284559576,0.10053096491487339,9.8475110416666656,0.51484912499999991,-3.3996386666666667
1403715277452143104,-0.020245819323134219,0.080983277292536876,0.085172067497323284,9.5369671250000003,0.22064962499999999,-3.4568441249999995
1403715277457143040,-0.027925268031909273,-0.019547687622336492,0.05305800926062762,8.2375859999999985,-0.38409379166666668,-3.1871612499999999
1403715277462142976,0.00069813170079773186,-0.041189770347066175,0.073303828583761846,10.427737833333332,0.38409379166666668,-3.6202882916666663
1403715277467142912,-0.0062831853071795866,0.080983277292536876,0.07958701389094143,9.422556208333333,-0.62108783333333339,-3.1463002083333333
1403715277472143104,0.01117010721276371,-0.044680428851054839,0.064228116473391328,8.7279184999999995,0.065377666666666667,-3.2607111249999998
1403715277477143040,0.023038346126325153,0.02583087292951608,0.07819075048934597,10.435910041666666,0.5475379583333333,-3.4731885416666666
1403715277482142976,-0.010471975511965976,0.060039326268604934,0.057246799465414,8.4664078333333332,0.25333845833333329,-3.2852277500000002
1403715277487142912,-0.0076794487087750501,-0.048869219055841226,0.064926248174189058,9.6268614166666655,0.50667691666666659,-3.857282333333333
1403715277492143104,-0.022340214425527419,0.052359877559829883,0.07749261878854824,9.7085834999999996,0.122583125,-3.6121160833333334
1403715277497143040,-0.016755160819145562,0.016057029118347832,0.08237954069413235,7.8861810416666662,-0.13892754166666665,-3.4486719166666666
1403715277502142976,-0.0041887902047863905,-0.016755160819145562,0.085172067497323284,9.872027666666666,0.26968287499999999,-4.1187929999999993
1403715277507142912,-0.0069813170079773184,0.039793506945470715,0.10192722831646883,9.9782663750000005,-0.20430520833333332,-4.1351374166666668
1403715277512143104,0.0048869219055841231,-0.0027925268031909274,0.10402162341886204,7.8780088333333333,0.0081722083333333334,-3.6448049166666663
1403715277517143040,0.0069813170079773184,0.023038346126325153,0.07958701389094143,8.6216797916666668,0.52302133333333334,-3.4241552916666667
1403715277522142976,0.0034906585039886592,0.032114058236695664,0.064228116473391328,9.0057735833333332,-0.28602729166666663,-3.5549106249999998
