#timestamp [ns],w_RS_S_x [rad s^-1],w_RS_S_y [rad s^-1],w_RS_S_z [rad s^-1],a_RS_S_x [m s^-2],a_RS_S_y [m s^-2],a_RS_S_z [m s^-2]
1403715886544058112,-0.0020943951023931952,0.018849555921538759,0.07609635538695278,9.0629790416666669,0.4494714583333333,-3.6529771249999996
1403715886549058048,-0.0034906585039886592,0.021642082724729686,0.07609635538695278,9.0629790416666669,0.41678262500000002,-3.6366327083333334
1403715886554057984,-0.0027925268031909274,0.018849555921538759,0.076794487087750496,9.0629790416666669,0.36774937499999999,-3.6611493333333334
1403715886559057920,0.00069813170079773186,0.016057029118347832,0.07958701389094143,9.0548068333333322,0.40043820833333332,-3.6202882916666663
1403715886564058112,-0.0013962634015954637,0.018849555921538759,0.07749261878854824,9.0629790416666669,0.36774937499999999,-3.6121160833333334
1403715886569058048,-0.00069813170079773186,0.013962634015954637,0.07749261878854824,9.0956678750000002,0.40861041666666664,-3.6284604999999996
1403715886574057984,-0.0020943951023931952,0.013962634015954637,0.07749261878854824,9.0793234583333327,0.392266,-3.6121160833333334
1403715886579057920,-0.0020943951023931952,0.0153588974175501,0.07609635538695278,9.0629790416666669,0.40861041666666664,-3.6202882916666663
1403715886584058112,-0.0020943951023931952,0.012566370614359173,0.07819075048934597,9.0548068333333322,0.40861041666666664,-3.6529771249999996
1403715886589058048,-0.00069813170079773186,0.018151424220741029,0.07819075048934597,9.0466346249999994,0.392266,-3.6448049166666663
1403715886594057984,-0.0020943951023931952,0.018151424220741029,0.07609635538695278,9.1120122916666659,0.47398808333333331,-3.6938381666666662
1403715886599057920,-0.0034906585039886592,0.018151424220741029,0.07749261878854824,9.0629790416666669,0.41678262500000002,-3.6448049166666663
1403715886604058112,-0.0062831853071795866,0.020943951023931952,0.07749261878854824,9.0711512499999998,0.392266,-3.6039438749999997
1403715886609058048,-0.0048869219055841231,0.016755160819145562,0.073303828583761846,9.1447011249999992,0.40861041666666664,-3.6284604999999996
1403715886614057984,-0.0041887902047863905,0.018849555921538759,0.071209433481368656,9.1038400833333331,0.4494714583333333,-3.6448049166666663
1403715886619057920,-0.0048869219055841231,0.020245819323134219,0.07749261878854824,9.1038400833333331,0.40861041666666664,-3.6611493333333334
1403715886624058112,-0.0020943951023931952,0.018849555921538759,0.075398223686155036,9.1120122916666659,0.40861041666666664,-3.6448049166666663
1403715886629058048,-0.0020943951023931952,0.016057029118347832,0.075398223686155036,9.0629790416666669,0.38409379166666668,-3.6529771249999996
1403715886634057984,-0.0013962634015954637,0.016755160819145562,0.074001960284559576,9.0793234583333327,0.37592158333333331,-3.6856659583333333
1403715886639057920,0.0,0.018151424220741029,0.078888882190143686,9.0302902083333318,0.40861041666666664,-3.6611493333333334
1403715886644058112,-0.0020943951023931952,0.020245819323134219,0.07819075048934597,9.0221180000000007,0.43312704166666666,-3.6284604999999996
1403715886649058048,-0.0034906585039886592,0.019547687622336492,0.080983277292536876,9.0874956666666655,0.43312704166666666,-3.6448049166666663
1403715886654057984,-0.0013962634015954637,0.020943951023931952,0.080983277292536876,9.0874956666666655,0.41678262500000002,-3.6284604999999996
1403715886659057920,0.00069813170079773186,0.022340214425527419,0.080285145591739146,9.0548068333333322,0.38409379166666668,-3.6448049166666663
1403715886664058112,-0.0041887902047863905,0.020245819323134219,0.07749261878854824,9.0874956666666655,0.38409379166666668,-3.6693215416666662
1403715886669058048,-0.0020943951023931952,0.020943951023931952,0.07958701389094143,9.0956678750000002,0.392266,-3.6202882916666663
1403715886674057984,-0.0020943951023931952,0.020245819323134219,0.07609635538695278,9.1201845000000006,0.38409379166666668,-3.6366327083333334
1403715886679057920,-0.0048869219055841231,0.016057029118347832,0.07819075048934597,9.0874956666666655,0.392266,-3.6202882916666663
1403715886684058112,-0.0034906585039886592,0.019547687622336492,0.07819075048934597,9.0384624166666665,0.38409379166666668,-3.6202882916666663
1403715886689058048,-0.0034906585039886592,0.020245819323134219,0.076794487087750496,9.0711512499999998,0.41678262500000002,-3.6611493333333334
1403715886694057984,-0.0013962634015954637,0.019547687622336492,0.07819075048934597,9.0629790416666669,0.42495483333333334,-3.6529771249999996
1403715886699057920,-0.0034906585039886592,0.023038346126325153,0.073303828583761846,9.0711512499999998,0.35957716666666667,-3.6284604999999996
1403715886704058112,-0.0020943951023931952,0.020943951023931952,0.074700091985357306,9.0956678750000002,0.44129924999999998,-3.6529771249999996
1403715886709058048,-0.0013962634015954637,0.016755160819145562,0.076794487087750496,9.0711512499999998,0.43312704166666666,-3.6529771249999996
1403715886714057984,-0.0020943951023931952,0.020245819323134219,0.074700091985357306,9.0548068333333322,0.35140495833333335,-3.6448049166666663
1403715886719057920,-0.0020943951023931952,0.022340214425527419,0.07609635538695278,9.1447011249999992,0.45764366666666667,-3.702010375
1403715886724058112,-0.0013962634015954637,0.019547687622336492,0.07749261878854824,9.0711512499999998,0.38409379166666668,-3.67749375
1403715886729058048,-0.0034906585039886592,0.023038346126325153,0.07749261878854824,9.1120122916666659,0.35140495833333335,-3.6611493333333334
1403715886734057984,-0.00069813170079773186,0.017453292519943295,0.078888882190143686,9.1120122916666659,0.40861041666666664,-3.6611493333333334
1403715886739057920,-0.0013962634015954637,0.021642082724729686,0.078888882190143686,9.0956678750000002,0.38409379166666668,-3.6448049166666663
1403715886744058112,-0.0020943951023931952,0.023736477827122883,0.07958701389094143,9.1201845000000006,0.36774937499999999,-3.6366327083333334
1403715886749058048,0.00069813170079773186,0.020245819323134219,0.080285145591739146,9.0548068333333322,0.41678262500000002,-3.6366327083333334
1403715886754057984,-0.0013962634015954637,0.023736477827122883,0.07749261878854824,9.0548068333333322,0.42495483333333334,-3.6529771249999996
1403715886759057920,-0.0027925268031909274,0.021642082724729686,0.07819075048934597,9.0384624166666665,0.44129924999999998,-3.67749375
1403715886764058112,0.0,0.022340214425527419,0.07819075048934597,9.0384624166666665,0.43312704166666666,-3.6366327083333334
1403715886769058048,-0.0020943951023931952,0.020943951023931952,0.075398223686155036,9.0466346249999994,0.40043820833333332,-3.6529771249999996
1403715886774057984,-0.0027925268031909274,0.022340214425527419,0.074001960284559576,9.0874956666666655,0.40861041666666664,-3.6611493333333334
1403715886779057920,-0.0034906585039886592,0.023038346126325153,0.074001960284559576,9.0956678750000002,0.392266,-3.6202882916666663
1403715886784058112,-0.0020943951023931952,0.021642082724729686,0.075398223686155036,9.0956678750000002,0.40861041666666664,-3.6121160833333334
1403715886789058048,-0.0041887902047863905,0.019547687622336492,0.075398223686155036,9.0548068333333322,0.41678262500000002,-3.6448049166666663
1403715886794057984,0.0013962634015954637,0.017453292519943295,0.07819075048934597,9.0548068333333322,0.40861041666666664,-3.6448049166666663
1403715886799057920,-0.0013962634015954637,0.018849555921538759,0.07749261878854824,9.0793234583333327,0.37592158333333331,-3.6448049166666663
1403715886804058112,-0.0013962634015954637,0.018151424220741029,0.07749261878854824,9.0874956666666655,0.44129924999999998,-3.6448049166666663
1403715886809058048,-0.0027925268031909274,0.020943951023931952,0.07609635538695278,9.0874956666666655,0.40043820833333332,-3.6284604999999996
1403715886814057984,-0.0013962634015954637,0.019547687622336492,0.07609635538695278,9.0956678750000002,0.40043820833333332,-3.6284604999999996
1403715886819057920,-0.0027925268031909274,0.018849555921538759,0.075398223686155036,9.0793234583333327,0.40043820833333332,-3.6284604999999996
1403715886824058112,-0.00069813170079773186,0.020943951023931952,0.075398223686155036,9.0711512499999998,0.35140495833333335,-3.6938381666666662
1403715886829058048,-0.0041887902047863905,0.018849555921538759,0.080285145591739146,9.1201845000000006,0.4494714583333333,-3.6693215416666662
1403715886834057984,-0.0048869219055841231,0.018849555921538759,0.075398223686155036,9.0874956666666655,0.40861041666666664,-3.6284604999999996
1403715886839057920,-0.0027925268031909274,0.024434609527920613,0.076794487087750496,9.0711512499999998,0.37592158333333331,-3.6448049166666663
1403715886844058112,0.0,0.019547687622336492,0.07958701389094143,9.0711512499999998,0.392266,-3.6366327083333334
1403715886849058048,-0.0027925268031909274,0.018151424220741029,0.076794487087750496,9.0629790416666669,0.40861041666666664,-3.6693215416666662
1403715886854057984,-0.0034906585039886592,0.021642082724729686,0.074700091985357306,9.0793234583333327,0.46581587499999999,-3.6529771249999996
1403715886859057920,-0.0034906585039886592,0.021642082724729686,0.07609635538695278,9.0793234583333327,0.42495483333333334,-3.6529771249999996
1403715886864058112,-0.0048869219055841231,0.020943951023931952,0.074001960284559576,9.0956678750000002,0.392266,-3.6202882916666663
1403715886869058048,-0.0055850536063818549,0.017453292519943295,0.07819075048934597,9.0793234583333327,0.38409379166666668,-3.6611493333333334
1403715886874057984,-0.0020943951023931952,0.017453292519943295,0.07749261878854824,9.0711512499999998,0.38409379166666668,-3.6611493333333334
1403715886879057920,-0.0034906585039886592,0.019547687622336492,0.074700091985357306,9.0384624166666665,0.40043820833333332,-3.6366327083333334
1403715886884058112,-0.0020943951023931952,0.017453292519943295,0.07819075048934597,9.0956678750000002,0.45764366666666667,-3.6284604999999996
1403715886889058048,0.0,0.019547687622336492,0.07749261878854824,9.0629790416666669,0.42495483333333334,-3.6366327083333334
1403715886894057984,-0.0041887902047863905,0.020943951023931952,0.075398223686155036,9.0711512499999998,0.38409379166666668,-3.6611493333333334
1403715886899057920,0.0,0.018151424220741029,0.073303828583761846,9.0711512499999998,0.40861041666666664,-3.6448049166666663
1403715886904058112,0.00069813170079773186,0.019547687622336492,0.07609635538695278,9.0466346249999994,0.43312704166666666,-3.6448049166666663
1403715886909058048,0.00069813170079773186,0.0153588974175501,0.076794487087750496,9.1038400833333331,0.42495483333333334,-3.6448049166666663
1403715886914057984,-0.0020943951023931952,0.018151424220741029,0.076794487087750496,9.0956678750000002,0.40043820833333332,-3.6529771249999996
1403715886919057920,0.0013962634015954637,0.018151424220741029,0.076794487087750496,9.0466346249999994,0.38409379166666668,-3.6202882916666663
1403715886924058112,-0.0027925268031909274,0.016755160819145562,0.076794487087750496,9.1038400833333331,0.40043820833333332,-3.6448049166666663
1403715886929058048,-0.0034906585039886592,0.017453292519943295,0.07819075048934597,9.0793234583333327,0.43312704166666666,-3.6611493333333334
1403715886934057984,0.00069813170079773186,0.018849555921538759,0.07609635538695278,9.0466346249999994,0.36774937499999999,-3.6448049166666663
1403715886939057920,-0.00069813170079773186,0.018849555921538759,0.074700091985357306,9.0793234583333327,0.38409379166666668,-3.6611493333333334
1403715886944058112,-0.0034906585039886592,0.017453292519943295,0.076794487087750496,9.0384624166666665,0.35957716666666667,-3.6202882916666663
1403715886949058048,-0.0041887902047863905,0.018151424220741029,0.074001960284559576,9.0956678750000002,0.36774937499999999,-3.6448049166666663
1403715886954057984,-0.0048869219055841231,0.022340214425527419,0.074700091985357306,9.0874956666666655,0.41678262500000002,-3.6529771249999996
1403715886959057920,-0.0048869219055841231,0.017453292519943295,0.076794487087750496,9.0384624166666665,0.40861041666666664,-3.6693215416666662
1403715886964058112,-0.0027925268031909274,0.019547687622336492,0.07819075048934597,9.0548068333333322,0.40043820833333332,-3.67749375
1403715886969058048,-0.0013962634015954637,0.023038346126325153,0.080983277292536876,9.0793234583333327,0.44129924999999998,-3.6693215416666662
1403715886974057984,-0.0020943951023931952,0.020245819323134219,0.076794487087750496,9.1120122916666659,0.40861041666666664,-3.6202882916666663
1403715886979057920,-0.00069813170079773186,0.016057029118347832,0.07609635538695278,9.0956678750000002,0.40861041666666664,-3.6448049166666663
1403715886984058112,-0.0041887902047863905,0.018849555921538759,0.076794487087750496,9.0793234583333327,0.41678262500000002,-3.6284604999999996
1403715886989058048,-0.0034906585039886592,0.019547687622336492,0.07749261878854824,9.0956678750000002,0.40043820833333332,-3.6284604999999996
1403715886994057984,-0.0034906585039886592,0.019547687622336492,0.07819075048934597,9.1120122916666659,0.44129924999999998,-3.6611493333333334
1403715886999057920,-0.0020943951023931952,0.023038346126325153,0.07958701389094143,9.0711512499999998,0.43312704166666666,-3.6693215416666662
1403715887004058112,-0.0041887902047863905,0.020943951023931952,0.076794487087750496,9.1038400833333331,0.37592158333333331,-3.6611493333333334
1403715887009058048,-0.0020943951023931952,0.018151424220741029,0.07609635538695278,9.1365289166666663,0.4494714583333333,-3.67749375
1403715887014057984,-0.00069813170079773186,0.022340214425527419,0.074700091985357306,9.1201845000000006,0.4494714583333333,-3.6366327083333334
1403715887019057920,0.00069813170079773186,0.022340214425527419,0.07749261878854824,9.0956678750000002,0.42495483333333334,-3.6366327083333334
1403715887024058112,-0.0013962634015954637,0.018849555921538759,0.078888882190143686,9.0874956666666655,0.42495483333333334,-3.6448049166666663
1403715887029058048,-0.0034906585039886592,0.021642082724729686,0.07609635538695278,9.0548068333333322,0.40861041666666664,-3.6529771249999996
1403715887034057984,-0.0055850536063818549,0.023736477827122883,0.075398223686155036,9.0629790416666669,0.38409379166666668,-3.67749375
1403715887039057920,-0.0034906585039886592,0.017453292519943295,0.074700091985357306,9.0874956666666655,0.4494714583333333,-3.6693215416666662
1403715887044058112,0.0027925268031909274,0.021642082724729686,0.07749261878854824,9.0793234583333327,0.40043820833333332,-3.6448049166666663
1403715887049058048,0.0020943951023931952,0.023038346126325153,0.076794487087750496,9.0629790416666669,0.41678262500000002,-3.6366327083333334
1403715887054057984,0.0020943951023931952,0.019547687622336492,0.07958701389094143,9.0466346249999994,0.40043820833333332,-3.5957716666666664
1403715887059057920,-0.00069813170079773186,0.021642082724729686,0.080983277292536876,9.0629790416666669,0.37592158333333331,-3.6693215416666662
1403715887064058112,-0.0020943951023931952,0.018151424220741029,0.072605696882964116,9.0629790416666669,0.392266,-3.67749375
1403715887069058048,-0.0020943951023931952,0.019547687622336492,0.080983277292536876,9.0629790416666669,0.40861041666666664,-3.6202882916666663
1403715887074057984,-0.0055850536063818549,0.023736477827122883,0.07609635538695278,9.1120122916666659,0.40861041666666664,-3.67749375
1403715887079057920,-0.0048869219055841231,0.018151424220741029,0.076794487087750496,9.1038400833333331,0.46581587499999999,-3.6366327083333334
1403715887084058112,-0.0034906585039886592,0.019547687622336492,0.075398223686155036,9.0548068333333322,0.37592158333333331,-3.587599458333333
1403715887089058048,-0.0062831853071795866,0.018849555921538759,0.074700091985357306,9.0956678750000002,0.41678262500000002,-3.6529771249999996
1403715887094057984,-0.00069813170079773186,0.019547687622336492,0.07749261878854824,9.1365289166666663,0.43312704166666666,-3.6529771249999996
1403715887099057920,-0.00069813170079773186,0.019547687622336492,0.076794487087750496,9.0629790416666669,0.43312704166666666,-3.6202882916666663
1403715887104058112,-0.0020943951023931952,0.023038346126325153,0.073303828583761846,9.0956678750000002,0.392266,-3.6529771249999996
1403715887109058048,-0.0034906585039886592,0.017453292519943295,0.07749261878854824,9.1038400833333331,0.42495483333333334,-3.6202882916666663
1403715887114057984,-0.0013962634015954637,0.021642082724729686,0.07749261878854824,9.1120122916666659,0.40861041666666664,-3.6284604999999996
1403715887119057920,-0.0041887902047863905,0.018849555921538759,0.075398223686155036,9.1120122916666659,0.40861041666666664,-3.6202882916666663
1403715887124058112,-0.0041887902047863905,0.020943951023931952,0.07819075048934597,9.0548068333333322,0.41678262500000002,-3.6121160833333334
1403715887129058048,-0.0027925268031909274,0.020943951023931952,0.07749261878854824,9.0466346249999994,0.40861041666666664,-3.6611493333333334
1403715887134057984,-0.0013962634015954637,0.0153588974175501,0.07958701389094143,9.0793234583333327,0.45764366666666667,-3.6529771249999996
1403715887139057920,-0.00069813170079773186,0.018151424220741029,0.078888882190143686,9.0711512499999998,0.43312704166666666,-3.6366327083333334
1403715887144058112,-0.0041887902047863905,0.020245819323134219,0.076794487087750496,9.0384624166666665,0.38409379166666668,-3.6448049166666663
1403715887149058048,-0.0027925268031909274,0.018849555921538759,0.076794487087750496,9.0711512499999998,0.40861041666666664,-3.6693215416666662
1403715887154057984,-0.0020943951023931952,0.023038346126325153,0.07609635538695278,9.0548068333333322,0.44129924999999998,-3.6448049166666663
1403715887159057920,-0.0027925268031909274,0.023038346126325153,0.07819075048934597,9.0956678750000002,0.40861041666666664,-3.6611493333333334
1403715887164058112,-0.0020943951023931952,0.018151424220741029,0.08168140899333462,9.1038400833333331,0.4494714583333333,-3.67749375
1403715887169058048,-0.0027925268031909274,0.020943951023931952,0.076794487087750496,9.0548068333333322,0.43312704166666666,-3.6448049166666663
1403715887174057984,0.0,0.021642082724729686,0.07749261878854824,9.0793234583333327,0.40043820833333332,-3.6366327083333334
1403715887179057920,-0.0034906585039886592,0.017453292519943295,0.07958701389094143,9.0548068333333322,0.42495483333333334,-3.6611493333333334
1403715887184058112,-0.00069813170079773186,0.018151424220741029,0.07749261878854824,9.0793234583333327,0.392266,-3.6284604999999996
1403715887189058048,-0.0013962634015954637,0.018849555921538759,0.071907565182166372,9.0466346249999994,0.42495483333333334,-3.6611493333333334
1403715887194057984,-0.00069813170079773186,0.018849555921538759,0.07749261878854824,9.0874956666666655,0.392266,-3.67749375
1403715887199057920,-0.0013962634015954637,0.021642082724729686,0.07749261878854824,9.0548068333333322,0.38409379166666668,-3.6366327083333334
1403715887204058112,-0.0055850536063818549,0.019547687622336492,0.07819075048934597,9.1120122916666659,0.38409379166666668,-3.6529771249999996
1403715887209058048,-0.0041887902047863905,0.018849555921538759,0.07819075048934597,9.1038400833333331,0.42495483333333334,-3.6202882916666663
1403715887214057984,-0.0041887902047863905,0.016755160819145562,0.07958701389094143,9.0548068333333322,0.40043820833333332,-3.6448049166666663
1403715887219057920,-0.0020943951023931952,0.018849555921538759,0.075398223686155036,9.0466346249999994,0.41678262500000002,-3.6611493333333334
1403715887224058112,-0.0062831853071795866,0.018849555921538759,0.080983277292536876,9.0629790416666669,0.42495483333333334,-3.6202882916666663
1403715887229058048,-0.0027925268031909274,0.020943951023931952,0.08168140899333462,9.0956678750000002,0.40861041666666664,-3.6693215416666662
1403715887234057984,-0.0034906585039886592,0.017453292519943295,0.07749261878854824,9.0874956666666655,0.40043820833333332,-3.6366327083333334
1403715887239057920,-0.0034906585039886592,0.018849555921538759,0.07749261878854824,9.1038400833333331,0.42495483333333334,-3.6284604999999996
1403715887244058112,0.0034906585039886592,0.023038346126325153,0.080285145591739146,9.1283567083333317,0.40043820833333332,-3.67749375
1403715887249058048,-0.0020943951023931952,0.018849555921538759,0.080285145591739146,9.1038400833333331,0.44129924999999998,-3.702010375
1403715887254057984,-0.0020943951023931952,0.020245819323134219,0.07819075048934597,9.0548068333333322,0.392266,-3.6284604999999996
1403715887259057920,-0.0027925268031909274,0.017453292519943295,0.07749261878854824,9.0874956666666655,0.37592158333333331,-3.6448049166666663
1403715887264058112,-0.0034906585039886592,0.020245819323134219,0.07958701389094143,9.1120122916666659,0.40861041666666664,-3.6448049166666663
1403715887269058048,-0.0020943951023931952,0.023736477827122883,0.074001960284559576,9.0793234583333327,0.38409379166666668,-3.6366327083333334
1403715887274057984,-0.0020943951023931952,0.022340214425527419,0.076794487087750496,9.0874956666666655,0.40861041666666664,-3.6529771249999996
1403715887279057920,0.0,0.020245819323134219,0.075398223686155036,9.1120122916666659,0.42495483333333334,-3.6529771249999996
1403715887284058112,-0.0020943951023931952,0.019547687622336492,0.074700091985357306,9.0793234583333327,0.35957716666666667,-3.6202882916666663
1403715887289058048,-0.00069813170079773186,0.016755160819145562,0.07819075048934597,9.0874956666666655,0.44129924999999998,-3.702010375
1403715887294057984,-0.0013962634015954637,0.020943951023931952,0.07819075048934597,9.0793234583333327,0.42495483333333334,-3.6448049166666663
1403715887299057920,-0.0055850536063818549,0.021642082724729686,0.080285145591739146,9.0793234583333327,0.40043820833333332,-3.6202882916666663
1403715887304058112,-0.0013962634015954637,0.016755160819145562,0.080983277292536876,9.0874956666666655,0.4494714583333333,-3.6856659583333333
1403715887309058048,0.00069813170079773186,0.017453292519943295,0.080285145591739146,9.0874956666666655,0.4494714583333333,-3.702010375
1403715887314057984,-0.0013962634015954637,0.022340214425527419,0.07819075048934597,9.0956678750000002,0.392266,-3.6202882916666663
1403715887319057920,0.0055850536063818549,0.017453292519943295,0.078888882190143686,9.0711512499999998,0.392266,-3.6448049166666663
1403715887324058112,0.0013962634015954637,0.017453292519943295,0.07609635538695278,9.0711512499999998,0.36774937499999999,-3.6121160833333334
1403715887329058048,0.0,0.023038346126325153,0.07609635538695278,9.0793234583333327,0.40861041666666664,-3.6529771249999996
1403715887334057984,-0.0013962634015954637,0.021642082724729686,0.07749261878854824,9.0793234583333327,0.42495483333333334,-3.6366327083333334
1403715887339057920,-0.0013962634015954637,0.02583087292951608,0.074001960284559576,9.0548068333333322,0.40861041666666664,-3.6121160833333334
1403715887344058112,0.0,0.022340214425527419,0.072605696882964116,9.1120122916666659,0.392266,-3.6448049166666663
1403715887349058048,-0.0034906585039886592,0.019547687622336492,0.07749261878854824,9.0466346249999994,0.44129924999999998,-3.6448049166666663
1403715887354057984,0.0013962634015954637,0.022340214425527419,0.08237954069413235,9.0629790416666669,0.392266,-3.6039438749999997
1403715887359057920,-0.00069813170079773186,0.020245819323134219,0.08237954069413235,9.0956678750000002,0.40043820833333332,-3.6448049166666663
1403715887364058112,-0.0013962634015954637,0.017453292519943295,0.074001960284559576,9.0956678750000002,0.44129924999999998,-3.6202882916666663
1403715887369058048,-0.0027925268031909274,0.020943951023931952,0.07609635538695278,9.0466346249999994,0.40861041666666664,-3.6284604999999996
1403715887374057984,-0.0034906585039886592,0.019547687622336492,0.07749261878854824,9.0956678750000002,0.41678262500000002,-3.6366327083333334
1403715887379057920,-0.0034906585039886592,0.020245819323134219,0.07609635538695278,9.1038400833333331,0.46581587499999999,-3.6448049166666663
1403715887384058112,0.0013962634015954637,0.019547687622336492,0.076794487087750496,9.0793234583333327,0.392266,-3.6284604999999996
1403715887389058048,0.0013962634015954637,0.017453292519943295,0.07609635538695278,9.0793234583333327,0.42495483333333334,-3.67749375
1403715887394057984,-0.0020943951023931952,0.017453292519943295,0.074001960284559576,9.0711512499999998,0.42495483333333334,-3.6284604999999996
1403715887399057920,-0.0034906585039886592,0.021642082724729686,0.075398223686155036,9.1038400833333331,0.40861041666666664,-3.67749375
1403715887404058112,-0.0027925268031909274,0.020943951023931952,0.07819075048934597,9.0711512499999998,0.392266,-3.6856659583333333
1403715887409058048,-0.0020943951023931952,0.019547687622336492,0.07609635538695278,9.0711512499999998,0.40861041666666664,-3.6448049166666663
1403715887414057984,-0.0055850536063818549,0.019547687622336492,0.07749261878854824,9.0793234583333327,0.35957716666666667,-3.6202882916666663
1403715887419057920,0.0,0.019547687622336492,0.07819075048934597,9.0711512499999998,0.392266,-3.6448049166666663
1403715887424058112,-0.0034906585039886592,0.016755160819145562,0.075398223686155036,9.0466346249999994,0.41678262500000002,-3.6366327083333334
1403715887429058048,-0.0027925268031909274,0.020245819323134219,0.07749261878854824,9.1038400833333331,0.40043820833333332,-3.6448049166666663
1403715887434057984,-0.0027925268031909274,0.022340214425527419,0.074700091985357306,9.1120122916666659,0.40043820833333332,-3.6448049166666663
1403715887439057920,-0.0013962634015954637,0.017453292519943295,0.075398223686155036,9.0956678750000002,0.41678262500000002,-3.6366327083333334
1403715887444058112,-0.0013962634015954637,0.018151424220741029,0.078888882190143686,9.1120122916666659,0.40861041666666664,-3.6284604999999996
1403715887449058048,-0.0013962634015954637,0.018849555921538759,0.080285145591739146,9.0711512499999998,0.44129924999999998,-3.6284604999999996
1403715887454057984,-0.0020943951023931952,0.020943951023931952,0.076794487087750496,9.0629790416666669,0.38409379166666668,-3.6529771249999996
1403715887459057920,-0.0041887902047863905,0.021642082724729686,0.07819075048934597,9.0956678750000002,0.38409379166666668,-3.6611493333333334
1403715887464058112,-0.00069813170079773186,0.018849555921538759,0.080285145591739146,9.0793234583333327,0.392266,-3.6366327083333334
1403715887469058048,-0.0020943951023931952,0.021642082724729686,0.07958701389094143,9.0711512499999998,0.38409379166666668,-3.6121160833333334
1403715887474057984,-0.0034906585039886592,0.019547687622336492,0.076794487087750496,9.1038400833333331,0.392266,-3.6693215416666662
1403715887479057920,-0.0041887902047863905,0.020245819323134219,0.080285145591739146,9.0956678750000002,0.44129924999999998,-3.6611493333333334
1403715887484058112,-0.0020943951023931952,0.018849555921538759,0.07819075048934597,9.0874956666666655,0.40861041666666664,-3.6448049166666663
1403715887489058048,-0.0020943951023931952,0.018849555921538759,0.075398223686155036,9.0956678750000002,0.42495483333333334,-3.6448049166666663
1403715887494057984,-0.0034906585039886592,0.018849555921538759,0.074700091985357306,9.0629790416666669,0.47398808333333331,-3.6611493333333334
1403715887499057920,-0.0027925268031909274,0.019547687622336492,0.072605696882964116,9.0548068333333322,0.40861041666666664,-3.6448049166666663
1403715887504058112,-0.0020943951023931952,0.018849555921538759,0.07609635538695278,9.0874956666666655,0.43312704166666666,-3.67749375
1403715887509058048,-0.0020943951023931952,0.019547687622336492,0.076794487087750496,9.0793234583333327,0.41678262500000002,-3.6448049166666663
1403715887514057984,-0.0027925268031909274,0.018849555921538759,0.07958701389094143,9.0793234583333327,0.37592158333333331,-3.6448049166666663
1403715887519057920,-0.0020943951023931952,0.017453292519943295,0.078888882190143686,9.0956678750000002,0.41678262500000002,-3.6121160833333334
1403715887524058112,-0.00069813170079773186,0.0153588974175501,0.07819075048934597,9.0793234583333327,0.46581587499999999,-3.6448049166666663
1403715887529058048,-0.0020943951023931952,0.023736477827122883,0.076794487087750496,9.1120122916666659,0.40043820833333332,-3.6856659583333333
1403715887534057984,-0.0020943951023931952,0.020245819323134219,0.07609635538695278,9.0629790416666669,0.37592158333333331,-3.7101825833333333
1403715887539057920,-0.0034906585039886592,0.018849555921538759,0.07749261878854824,9.0629790416666669,0.41678262500000002,-3.6529771249999996
1403715887544058112,-0.0034906585039886592,0.022340214425527419,0.07819075048934597,9.0793234583333327,0.392266,-3.6529771249999996
1403715887549058048,-0.0055850536063818549,0.021642082724729686,0.07819075048934597,9.0793234583333327,0.42495483333333334,-3.6529771249999996
1403715887554057984,-0.00069813170079773186,0.018849555921538759,0.07749261878854824,9.0874956666666655,0.42495483333333334,-3.6284604999999996
1403715887559057920,-0.0027925268031909274,0.018151424220741029,0.074700091985357306,9.1201845000000006,0.40861041666666664,-3.6366327083333334
1403715887564058112,-0.0020943951023931952,0.0153588974175501,0.07819075048934597,9.1201845000000006,0.41678262500000002,-3.6611493333333334
1403715887569058048,-0.00069813170079773186,0.020943951023931952,0.080285145591739146,9.0629790416666669,0.40861041666666664,-3.6284604999999996
1403715887574057984,0.0020943951023931952,0.018849555921538759,0.080285145591739146,9.0548068333333322,0.41678262500000002,-3.6366327083333334
1403715887579057920,-0.00069813170079773186,0.020245819323134219,0.076794487087750496,9.1120122916666659,0.42495483333333334,-3.6529771249999996
1403715887584058112,-0.0027925268031909274,0.018849555921538759,0.075398223686155036,9.0793234583333327,0.44129924999999998,-3.6366327083333334
1403715887589058048,-0.0027925268031909274,0.021642082724729686,0.07609635538695278,9.1120122916666659,0.36774937499999999,-3.6284604999999996
1403715887594057984,-0.0041887902047863905,0.020245819323134219,0.078888882190143686,9.1120122916666659,0.42495483333333334,-3.67749375
1403715887599057920,-0.0020943951023931952,0.020943951023931952,0.07958701389094143,9.0711512499999998,0.392266,-3.6366327083333334
1403715887604058112,-0.0013962634015954637,0.020245819323134219,0.074700091985357306,9.0874956666666655,0.34323275000000003,-3.6693215416666662
1403715887609058048,0.00069813170079773186,0.017453292519943295,0.07609635538695278,9.0466346249999994,0.45764366666666667,-3.6448049166666663
1403715887614057984,0.0,0.020943951023931952,0.07609635538695278,9.0711512499999998,0.44129924999999998,-3.6039438749999997
1403715887619057920,-0.0020943951023931952,0.020245819323134219,0.07609635538695278,9.0629790416666669,0.37592158333333331,-3.6366327083333334
1403715887624058112,-0.0013962634015954637,0.018849555921538759,0.08168140899333462,9.0874956666666655,0.44129924999999998,-3.6448049166666663
1403715887629058048,-0.0027925268031909274,0.023038346126325153,0.080983277292536876,9.0793234583333327,0.44129924999999998,-3.6284604999999996
1403715887634057984,-0.00069813170079773186,0.021642082724729686,0.07749261878854824,9.0466346249999994,0.3350605416666666,-3.6693215416666662
1403715887639057920,0.0,0.018849555921538759,0.076794487087750496,9.1120122916666659,0.43312704166666666,-3.6611493333333334
1403715887644058112,-0.00069813170079773186,0.020943951023931952,0.07749261878854824,9.0874956666666655,0.42495483333333334,-3.6284604999999996
1403715887649058048,-0.0048869219055841231,0.018849555921538759,0.07609635538695278,9.1365289166666663,0.392266,-3.67749375
1403715887654057984,-0.0055850536063818549,0.016755160819145562,0.07609635538695278,9.0793234583333327,0.40043820833333332,-3.6284604999999996
1403715887659057920,-0.0041887902047863905,0.018151424220741029,0.07749261878854824,9.0793234583333327,0.38409379166666668,-3.6202882916666663
1403715887664058112,-0.0027925268031909274,0.021642082724729686,0.075398223686155036,9.1365289166666663,0.40861041666666664,-3.6611493333333334
1403715887669058048,-0.0034906585039886592,0.014660765716752367,0.074700091985357306,9.1283567083333317,0.41678262500000002,-3.6529771249999996
1403715887674057984,0.0013962634015954637,0.018849555921538759,0.07819075048934597,9.0956678750000002,0.35957716666666667,-3.6448049166666663
1403715887679057920,-0.00069813170079773186,0.019547687622336492,0.076794487087750496,9.0956678750000002,0.38409379166666668,-3.6856659583333333
1403715887684058112,-0.0013962634015954637,0.017453292519943295,0.07609635538695278,9.1038400833333331,0.42495483333333334,-3.67749375
1403715887689058048,-0.0027925268031909274,0.020943951023931952,0.07749261878854824,9.0548068333333322,0.36774937499999999,-3.6448049166666663
1403715887694057984,-0.0034906585039886592,0.023736477827122883,0.07819075048934597,9.1038400833333331,0.38409379166666668,-3.6529771249999996
1403715887699057920,-0.0027925268031909274,0.020943951023931952,0.076794487087750496,9.0711512499999998,0.42495483333333334,-3.6529771249999996
1403715887704058112,-0.0013962634015954637,0.020943951023931952,0.075398223686155036,9.0711512499999998,0.40861041666666664,-3.6529771249999996
1403715887709058048,0.00069813170079773186,0.018849555921538759,0.07958701389094143,9.0874956666666655,0.4494714583333333,-3.6448049166666663
1403715887714057984,0.00069813170079773186,0.018849555921538759,0.074700091985357306,9.0793234583333327,0.40861041666666664,-3.5957716666666664
1403715887719057920,-0.0041887902047863905,0.018849555921538759,0.076794487087750496,9.0793234583333327,0.36774937499999999,-3.6366327083333334
1403715887724058112,-0.0034906585039886592,0.016057029118347832,0.080285145591739146,9.0711512499999998,0.40861041666666664,-3.6448049166666663
1403715887729058048,-0.0034906585039886592,0.020245819323134219,0.080983277292536876,9.0466346249999994,0.41678262500000002,-3.6366327083333334
1403715887734057984,-0.0041887902047863905,0.024434609527920613,0.078888882190143686,9.1038400833333331,0.392266,-3.6611493333333334
1403715887739057920,-0.0027925268031909274,0.020943951023931952,0.074700091985357306,9.1201845000000006,0.43312704166666666,-3.67749375
1403715887744058112,-0.0013962634015954637,0.022340214425527419,0.076794487087750496,9.0548068333333322,0.392266,-3.6366327083333334
1403715887749058048,-0.0013962634015954637,0.018849555921538759,0.076794487087750496,9.0711512499999998,0.40861041666666664,-3.6529771249999996
1403715887754057984,-0.00069813170079773186,0.021642082724729686,0.078888882190143686,9.1120122916666659,0.42495483333333334,-3.6693215416666662
1403715887759057920,-0.00069813170079773186,0.021642082724729686,0.07749261878854824,9.0793234583333327,0.40861041666666664,-3.6202882916666663
1403715887764058112,-0.0020943951023931952,0.016755160819145562,0.075398223686155036,9.0548068333333322,0.38409379166666668,-3.6284604999999996
1403715887769058048,-0.0027925268031909274,0.0153588974175501,0.078888882190143686,9.0874956666666655,0.37592158333333331,-3.6448049166666663
1403715887774057984,0.0,0.0153588974175501,0.080285145591739146,9.0466346249999994,0.41678262500000002,-3.6202882916666663
1403715887779057920,0.0,0.020943951023931952,0.07958701389094143,9.0548068333333322,0.40861041666666664,-3.6039438749999997
1403715887784058112,-0.00069813170079773186,0.016057029118347832,0.076794487087750496,9.0629790416666669,0.42495483333333334,-3.6284604999999996
1403715887789058048,-0.0034906585039886592,0.020245819323134219,0.07958701389094143,9.0548068333333322,0.45764366666666667,-3.6202882916666663
1403715887794057984,-0.0020943951023931952,0.021642082724729686,0.078888882190143686,9.0548068333333322,0.43312704166666666,-3.6448049166666663
1403715887799057920,-0.0034906585039886592,0.020943951023931952,0.078888882190143686,9.0874956666666655,0.48216029166666663,-3.6693215416666662
1403715887804058112,-0.0027925268031909274,0.020943951023931952,0.07609635538695278,9.0956678750000002,0.43312704166666666,-3.6121160833333334
1403715887809058048,-0.0013962634015954637,0.020245819323134219,0.07749261878854824,9.1038400833333331,0.42495483333333334,-3.6448049166666663
1403715887814057984,-0.0013962634015954637,0.019547687622336492,0.07819075048934597,9.1120122916666659,0.43312704166666666,-3.6366327083333334
1403715887819057920,-0.0027925268031909274,0.018849555921538759,0.07819075048934597,9.0793234583333327,0.41678262500000002,-3.6529771249999996
1403715887824058112,-0.0034906585039886592,0.024434609527920613,0.07819075048934597,9.1038400833333331,0.38409379166666668,-3.6448049166666663
1403715887829058048,-0.0027925268031909274,0.017453292519943295,0.07749261878854824,9.1201845000000006,0.4494714583333333,-3.6856659583333333
1403715887834057984,-0.0013962634015954637,0.020245819323134219,0.073303828583761846,9.0548068333333322,0.392266,-3.6693215416666662
1403715887839057920,-0.0027925268031909274,0.023736477827122883,0.07819075048934597,9.0711512499999998,0.36774937499999999,-3.6611493333333334
1403715887844058112,-0.00069813170079773186,0.022340214425527419,0.076794487087750496,9.1283567083333317,0.40043820833333332,-3.6448049166666663
1403715887849058048,0.00069813170079773186,0.017453292519943295,0.07609635538695278,9.0629790416666669,0.40043820833333332,-3.6121160833333334
1403715887854057984,-0.0013962634015954637,0.018849555921538759,0.073303828583761846,9.0711512499999998,0.37592158333333331,-3.6693215416666662
1403715887859057920,-0.0041887902047863905,0.018151424220741029,0.076794487087750496,9.0711512499999998,0.35140495833333335,-3.6202882916666663
1403715887864058112,-0.0027925268031909274,0.018849555921538759,0.07749261878854824,9.0302902083333318,0.36774937499999999,-3.6039438749999997
1403715887869058048,-0.0013962634015954637,0.020245819323134219,0.07749261878854824,9.0548068333333322,0.32688833333333334,-3.6529771249999996
1403715887874057984,0.0027925268031909274,0.019547687622336492,0.080983277292536876,9.0874956666666655,0.40043820833333332,-3.6448049166666663
1403715887879057920,-0.00069813170079773186,0.018151424220741029,0.08307767239493008,9.0466346249999994,0.41678262500000002,-3.6529771249999996
1403715887884058112,-0.0020943951023931952,0.018151424220741029,0.076794487087750496,9.0874956666666655,0.31871612500000002,-3.6611493333333334
1403715887889058048,-0.0041887902047863905,0.016057029118347832,0.07749261878854824,9.0956678750000002,0.392266,-3.6366327083333334
1403715887894057984,-0.0020943951023931952,0.017453292519943295,0.076794487087750496,9.0629790416666669,0.37592158333333331,-3.6121160833333334
1403715887899057920,-0.0013962634015954637,0.019547687622336492,0.07958701389094143,9.1038400833333331,0.35140495833333335,-3.6366327083333334
1403715887904058112,0.00069813170079773186,0.016057029118347832,0.076794487087750496,9.1283567083333317,0.41678262500000002,-3.6366327083333334
1403715887909058048,-0.0013962634015954637,0.018151424220741029,0.075398223686155036,9.0874956666666655,0.41678262500000002,-3.6448049166666663
1403715887914057984,-0.0034906585039886592,0.020943951023931952,0.076794487087750496,9.0629790416666669,0.36774937499999999,-3.6529771249999996
1403715887919057920,-0.0055850536063818549,0.0153588974175501,0.075398223686155036,9.0956678750000002,0.40043820833333332,-3.6529771249999996
1403715887924058112,-0.0013962634015954637,0.017453292519943295,0.078888882190143686,9.0629790416666669,0.37592158333333331,-3.6202882916666663
1403715887929058048,-0.00069813170079773186,0.018849555921538759,0.080285145591739146,9.0874956666666655,0.36774937499999999,-3.6366327083333334
1403715887934057984,-0.0013962634015954637,0.018849555921538759,0.07749261878854824,9.0384624166666665,0.41678262500000002,-3.6202882916666663
1403715887939057920,-0.0055850536063818549,0.017453292519943295,0.074700091985357306,9.0793234583333327,0.40861041666666664,-3.6202882916666663
1403715887944058112,-0.0027925268031909274,0.017453292519943295,0.07749261878854824,9.1120122916666659,0.40861041666666664,-3.6366327083333334
1403715887949058048,-0.0020943951023931952,0.018849555921538759,0.07958701389094143,9.0793234583333327,0.40043820833333332,-3.6202882916666663
1403715887954057984,0.0020943951023931952,0.021642082724729686,0.076794487087750496,9.1038400833333331,0.41678262500000002,-3.6202882916666663
1403715887959057920,-0.0013962634015954637,0.020245819323134219,0.074700091985357306,9.0711512499999998,0.41678262500000002,-3.6693215416666662
1403715887964058112,-0.0013962634015954637,0.017453292519943295,0.075398223686155036,9.0874956666666655,0.392266,-3.67749375
1403715887969058048,0.00069813170079773186,0.023736477827122883,0.07609635538695278,9.1038400833333331,0.4494714583333333,-3.6202882916666663
1403715887974057984,-0.0034906585039886592,0.020943951023931952,0.07749261878854824,9.0711512499999998,0.42495483333333334,-3.6366327083333334
1403715887979057920,0.0,0.018849555921538759,0.072605696882964116,9.0793234583333327,0.392266,-3.6529771249999996
1403715887984058112,0.0,0.020943951023931952,0.074001960284559576,9.0793234583333327,0.43312704166666666,-3.6529771249999996
1403715887989058048,-0.0048869219055841231,0.018849555921538759,0.076794487087750496,9.1120122916666659,0.40861041666666664,-3.6529771249999996
1403715887994057984,0.0,0.018151424220741029,0.080285145591739146,9.0956678750000002,0.45764366666666667,-3.6366327083333334
1403715887999057920,0.0,0.022340214425527419,0.07958701389094143,9.0793234583333327,0.4494714583333333,-3.6202882916666663
1403715888004058112,-0.0013962634015954637,0.020943951023931952,0.07749261878854824,9.1038400833333331,0.38409379166666668,-3.6448049166666663
1403715888009058048,-0.0041887902047863905,0.017453292519943295,0.07819075048934597,9.0874956666666655,0.40861041666666664,-3.6448049166666663
1403715888014057984,-0.0048869219055841231,0.0153588974175501,0.075398223686155036,9.0548068333333322,0.43312704166666666,-3.6284604999999996
1403715888019057920,-0.0027925268031909274,0.020943951023931952,0.07819075048934597,9.0874956666666655,0.392266,-3.6529771249999996
1403715888024058112,-0.0048869219055841231,0.019547687622336492,0.074700091985357306,9.0874956666666655,0.41678262500000002,-3.6611493333333334
1403715888029058048,-0.00069813170079773186,0.020943951023931952,0.07819075048934597,9.0874956666666655,0.392266,-3.6366327083333334
1403715888034057984,-0.0034906585039886592,0.020943951023931952,0.07958701389094143,9.0874956666666655,0.38409379166666668,-3.67749375
1403715888039057920,-0.0020943951023931952,0.019547687622336492,0.07749261878854824,9.1201845000000006,0.46581587499999999,-3.67749375
1403715888044058112,-0.0027925268031909274,0.018849555921538759,0.076794487087750496,9.0711512499999998,0.46581587499999999,-3.6693215416666662
1403715888049058048,-0.0027925268031909274,0.018151424220741029,0.078888882190143686,9.0711512499999998,0.40043820833333332,-3.6611493333333334
1403715888054057984,-0.00069813170079773186,0.020245819323134219,0.075398223686155036,9.0793234583333327,0.38409379166666668,-3.6284604999999996
1403715888059057920,0.0013962634015954637,0.022340214425527419,0.074700091985357306,9.0629790416666669,0.38409379166666668,-3.6284604999999996
1403715888064058112,0.0,0.019547687622336492,0.07749261878854824,9.0793234583333327,0.37592158333333331,-3.6366327083333334
1403715888069058048,-0.0041887902047863905,0.020245819323134219,0.075398223686155036,9.0711512499999998,0.41678262500000002,-3.6448049166666663
1403715888074057984,-0.0062831853071795866,0.023736477827122883,0.076794487087750496,9.0956678750000002,0.43312704166666666,-3.6611493333333334
1403715888079057920,-0.0027925268031909274,0.020943951023931952,0.07819075048934597,9.0956678750000002,0.392266,-3.6529771249999996
1403715888084058112,-0.0020943951023931952,0.022340214425527419,0.078888882190143686,9.1120122916666659,0.43312704166666666,-3.6529771249999996
1403715888089058048,-0.0034906585039886592,0.022340214425527419,0.078888882190143686,9.0793234583333327,0.40043820833333332,-3.6284604999999996
1403715888094057984,-0.0041887902047863905,0.020245819323134219,0.076794487087750496,9.0711512499999998,0.42495483333333334,-3.6529771249999996
1403715888099057920,0.00069813170079773186,0.018849555921538759,0.076794487087750496,9.0548068333333322,0.43312704166666666,-3.6693215416666662
1403715888104058112,0.00069813170079773186,0.017453292519943295,0.07958701389094143,9.0874956666666655,0.38409379166666668,-3.6284604999999996
1403715888109058048,-0.0027925268031909274,0.020245819323134219,0.07958701389094143,9.1201845000000006,0.38409379166666668,-3.6202882916666663
1403715888114057984,0.0,0.016755160819145562,0.075398223686155036,9.1283567083333317,0.38409379166666668,-3.6448049166666663
1403715888119057920,-0.0041887902047863905,0.018849555921538759,0.07609635538695278,9.0711512499999998,0.37592158333333331,-3.6202882916666663
1403715888124058112,-0.0020943951023931952,0.018151424220741029,0.07958701389094143,9.0466346249999994,0.36774937499999999,-3.6202882916666663
1403715888129058048,0.0,0.016755160819145562,0.078888882190143686,9.1038400833333331,0.38409379166666668,-3.6366327083333334
1403715888134057984,0.0020943951023931952,0.017453292519943295,0.076794487087750496,9.0956678750000002,0.45764366666666667,-3.6366327083333334
1403715888139057920,-0.0041887902047863905,0.021642082724729686,0.076794487087750496,9.0629790416666669,0.40861041666666664,-3.6448049166666663
1403715888144058112,-0.0020943951023931952,0.019547687622336492,0.078888882190143686,9.0874956666666655,0.38409379166666668,-3.6529771249999996
1403715888149058048,-0.0027925268031909274,0.021642082724729686,0.07819075048934597,9.1038400833333331,0.40861041666666664,-3.6611493333333334
1403715888154057984,-0.0041887902047863905,0.021642082724729686,0.075398223686155036,9.0874956666666655,0.34323275000000003,-3.67749375
1403715888159057920,-0.0027925268031909274,0.020245819323134219,0.076794487087750496,9.1038400833333331,0.43312704166666666,-3.6366327083333334
1403715888164058112,-0.0041887902047863905,0.018849555921538759,0.076794487087750496,9.0793234583333327,0.44129924999999998,-3.6448049166666663
1403715888169058048,-0.0013962634015954637,0.020245819323134219,0.07819075048934597,9.1201845000000006,0.42495483333333334,-3.6448049166666663
1403715888174057984,-0.0034906585039886592,0.020245819323134219,0.078888882190143686,9.1120122916666659,0.37592158333333331,-3.6366327083333334
1403715888179057920,0.00069813170079773186,0.017453292519943295,0.075398223686155036,9.0466346249999994,0.40861041666666664,-3.6366327083333334
1403715888184058112,-0.0020943951023931952,0.018151424220741029,0.07749261878854824,9.0874956666666655,0.38409379166666668,-3.6529771249999996
1403715888189058048,-0.0055850536063818549,0.020245819323134219,0.07958701389094143,9.0956678750000002,0.41678262500000002,-3.6529771249999996
1403715888194057984,-0.00069813170079773186,0.020943951023931952,0.07749261878854824,9.0711512499999998,0.44129924999999998,-3.6366327083333334
1403715888199057920,-0.0041887902047863905,0.023038346126325153,0.07958701389094143,9.0956678750000002,0.392266,-3.6448049166666663
1403715888204058112,-0.0034906585039886592,0.019547687622336492,0.080983277292536876,9.1120122916666659,0.47398808333333331,-3.6611493333333334
1403715888209058048,-0.0048869219055841231,0.017453292519943295,0.07609635538695278,9.0874956666666655,0.50667691666666659,-3.6448049166666663
1403715888214057984,-0.0020943951023931952,0.018849555921538759,0.07958701389094143,9.0711512499999998,0.42495483333333334,-3.6121160833333334
1403715888219057920,-0.0013962634015954637,0.016755160819145562,0.076794487087750496,9.0874956666666655,0.392266,-3.6448049166666663
1403715888224058112,-0.0034906585039886592,0.020245819323134219,0.076794487087750496,9.0793234583333327,0.44129924999999998,-3.6693215416666662
1403715888229058048,-0.0013962634015954637,0.023736477827122883,0.076794487087750496,9.0629790416666669,0.40861041666666664,-3.6448049166666663
1403715888234057984,-0.0041887902047863905,0.021642082724729686,0.076794487087750496,9.0956678750000002,0.37592158333333331,-3.6448049166666663
1403715888239057920,-0.0034906585039886592,0.018151424220741029,0.07958701389094143,9.0711512499999998,0.44129924999999998,-3.6448049166666663
1403715888244058112,-0.0034906585039886592,0.018849555921538759,0.07609635538695278,9.0384624166666665,0.40043820833333332,-3.67749375
1403715888249058048,-0.0034906585039886592,0.018849555921538759,0.07609635538695278,9.0548068333333322,0.36774937499999999,-3.67749375
1403715888254057984,-0.0041887902047863905,0.018849555921538759,0.075398223686155036,9.0548068333333322,0.41678262500000002,-3.6448049166666663
1403715888259057920,-0.0034906585039886592,0.020943951023931952,0.07749261878854824,9.0384624166666665,0.36774937499999999,-3.6202882916666663
1403715888264058112,-0.0055850536063818549,0.017453292519943295,0.080983277292536876,9.0956678750000002,0.38409379166666668,-3.6284604999999996
1403715888269058048,-0.0034906585039886592,0.021642082724729686,0.07749261878854824,9.0874956666666655,0.4903325,-3.6202882916666663
1403715888274057984,0.00069813170079773186,0.018151424220741029,0.076794487087750496,9.0956678750000002,0.44129924999999998,-3.6529771249999996
1403715888279057920,-0.0020943951023931952,0.018849555921538759,0.07749261878854824,9.0956678750000002,0.37592158333333331,-3.6693215416666662
1403715888284058112,-0.0020943951023931952,0.018151424220741029,0.078888882190143686,9.0793234583333327,0.40043820833333332,-3.6448049166666663
1403715888289058048,0.00069813170079773186,0.018849555921538759,0.07609635538695278,9.0874956666666655,0.392266,-3.6529771249999996
1403715888294057984,-0.00069813170079773186,0.018849555921538759,0.07819075048934597,9.1283567083333317,0.392266,-3.6611493333333334
1403715888299057920,-0.0020943951023931952,0.016755160819145562,0.078888882190143686,9.0793234583333327,0.41678262500000002,-3.67749375
1403715888304058112,-0.0048869219055841231,0.020245819323134219,0.07819075048934597,9.0711512499999998,0.42495483333333334,-3.6448049166666663
1403715888309058048,-0.0034906585039886592,0.018151424220741029,0.076794487087750496,9.0874956666666655,0.36774937499999999,-3.6448049166666663
1403715888314057984,-0.0027925268031909274,0.016755160819145562,0.07958701389094143,9.0629790416666669,0.42495483333333334,-3.6121160833333334
1403715888319057920,0.0,0.020943951023931952,0.075398223686155036,9.0548068333333322,0.38409379166666668,-3.6202882916666663
1403715888324058112,-0.0027925268031909274,0.018849555921538759,0.07749261878854824,9.0956678750000002,0.34323275000000003,-3.6448049166666663
1403715888329058048,0.0020943951023931952,0.018849555921538759,0.07749261878854824,9.0874956666666655,0.37592158333333331,-3.6529771249999996
1403715888334057984,-0.0027925268031909274,0.02583087292951608,0.07749261878854824,9.0874956666666655,0.45764366666666667,-3.6448049166666663
1403715888339057920,-0.0041887902047863905,0.022340214425527419,0.07749261878854824,9.0548068333333322,0.40043820833333332,-3.6284604999999996
1403715888344058112,-0.0034906585039886592,0.022340214425527419,0.076794487087750496,9.0874956666666655,0.392266,-3.6284604999999996
1403715888349058048,-0.0048869219055841231,0.018849555921538759,0.07749261878854824,9.1038400833333331,0.40043820833333332,-3.6284604999999996
1403715888354057984,-0.0048869219055841231,0.020245819323134219,0.080285145591739146,9.0874956666666655,0.36774937499999999,-3.6284604999999996
1403715888359057920,-0.0041887902047863905,0.019547687622336492,0.080285145591739146,9.0548068333333322,0.42495483333333334,-3.6448049166666663
1403715888364058112,-0.0034906585039886592,0.017453292519943295,0.078888882190143686,9.0793234583333327,0.45764366666666667,-3.6529771249999996
1403715888369058048,-0.0034906585039886592,0.016755160819145562,0.07609635538695278,9.0793234583333327,0.37592158333333331,-3.67749375
1403715888374057984,0.0,0.016755160819145562,0.07609635538695278,9.1201845000000006,0.40043820833333332,-3.6856659583333333
1403715888379057920,0.0020943951023931952,0.017453292519943295,0.07819075048934597,9.0466346249999994,0.47398808333333331,-3.6284604999999996
1403715888384058112,-0.0020943951023931952,0.018849555921538759,0.07819075048934597,9.0629790416666669,0.40043820833333332,-3.6202882916666663
1403715888389058048,-0.0069813170079773184,0.018849555921538759,0.07819075048934597,9.1120122916666659,0.4494714583333333,-3.67749375
1403715888394057984,-0.0041887902047863905,0.016755160819145562,0.07749261878854824,9.0548068333333322,0.43312704166666666,-3.6448049166666663
1403715888399057920,-0.0020943951023931952,0.020245819323134219,0.07819075048934597,9.0793234583333327,0.37592158333333331,-3.6611493333333334
1403715888404058112,-0.0013962634015954637,0.019547687622336492,0.080285145591739146,9.1365289166666663,0.392266,-3.6693215416666662
1403715888409058048,-0.0013962634015954637,0.019547687622336492,0.07749261878854824,9.0629790416666669,0.392266,-3.6448049166666663
1403715888414057984,-0.0034906585039886592,0.019547687622336492,0.07958701389094143,9.0139457916666661,0.34323275000000003,-3.6121160833333334
1403715888419057920,-0.0027925268031909274,0.020943951023931952,0.075398223686155036,9.0466346249999994,0.37592158333333331,-3.6366327083333334
1403715888424058112,-0.00069813170079773186,0.017453292519943295,0.076794487087750496,9.0793234583333327,0.392266,-3.6529771249999996
1403715888429058048,-0.0027925268031909274,0.023736477827122883,0.076794487087750496,9.1120122916666659,0.42495483333333334,-3.6611493333333334
1403715888434057984,-0.00069813170079773186,0.023038346126325153,0.076794487087750496,9.0874956666666655,0.38409379166666668,-3.6611493333333334
1403715888439057920,0.00069813170079773186,0.018849555921538759,0.080983277292536876,9.0384624166666665,0.43312704166666666,-3.6529771249999996
1403715888444058112,0.00069813170079773186,0.020245819323134219,0.078888882190143686,9.0711512499999998,0.40043820833333332,-3.6202882916666663
1403715888449058048,-0.0020943951023931952,0.022340214425527419,0.07609635538695278,9.0956678750000002,0.392266,-3.6366327083333334
1403715888454057984,-0.0034906585039886592,0.018849555921538759,0.076794487087750496,9.1120122916666659,0.4494714583333333,-3.6366327083333334
1403715888459057920,-0.0013962634015954637,0.023736477827122883,0.07958701389094143,9.0548068333333322,0.45764366666666667,-3.6366327083333334
1403715888464058112,-0.0027925268031909274,0.018151424220741029,0.074001960284559576,9.0548068333333322,0.392266,-3.6448049166666663
1403715888469058048,-0.0020943951023931952,0.021642082724729686,0.074001960284559576,9.0956678750000002,0.4494714583333333,-3.6448049166666663
1403715888474057984,-0.0020943951023931952,0.018151424220741029,0.07609635538695278,9.0629790416666669,0.37592158333333331,-3.6611493333333334
1403715888479057920,0.00069813170079773186,0.016057029118347832,0.075398223686155036,9.1447011249999992,0.36774937499999999,-3.6856659583333333
1403715888484058112,-0.0027925268031909274,0.014660765716752367,0.074700091985357306,9.1447011249999992,0.40043820833333332,-3.6284604999999996
1403715888489058048,-0.0027925268031909274,0.020245819323134219,0.075398223686155036,9.0384624166666665,0.40043820833333332,-3.6366327083333334
1403715888494057984,0.0,0.016755160819145562,0.07609635538695278,9.0466346249999994,0.32688833333333334,-3.6366327083333334
1403715888499057920,-0.0020943951023931952,0.016755160819145562,0.078888882190143686,9.0874956666666655,0.36774937499999999,-3.6448049166666663
1403715888504058112,-0.0013962634015954637,0.022340214425527419,0.07958701389094143,9.0793234583333327,0.38409379166666668,-3.6366327083333334
1403715888509058048,0.0,0.022340214425527419,0.08168140899333462,9.0793234583333327,0.35957716666666667,-3.6693215416666662
1403715888514057984,0.0020943951023931952,0.023038346126325153,0.07958701389094143,9.1120122916666659,0.38409379166666668,-3.6448049166666663
1403715888519057920,0.00069813170079773186,0.023736477827122883,0.078888882190143686,9.0711512499999998,0.44129924999999998,-3.6284604999999996
1403715888524058112,0.0041887902047863905,0.023038346126325153,0.078888882190143686,9.0711512499999998,0.37592158333333331,-3.6284604999999996
1403715888529058048,-0.0020943951023931952,0.023736477827122883,0.07958701389094143,9.0956678750000002,0.43312704166666666,-3.6611493333333334
1403715888534057984,0.0,0.017453292519943295,0.07819075048934597,9.0956678750000002,0.43312704166666666,-3.6529771249999996
1403715888539057920,-0.0027925268031909274,0.020943951023931952,0.078888882190143686,9.0302902083333318,0.37592158333333331,-3.6202882916666663
1403715888544058112,-0.0034906585039886592,0.017453292519943295,0.07958701389094143,9.0711512499999998,0.40043820833333332,-3.6284604999999996
1403715888549058048,-0.0027925268031909274,0.018849555921538759,0.07958701389094143,9.1038400833333331,0.37592158333333331,-3.6448049166666663
1403715888554057984,-0.0020943951023931952,0.019547687622336492,0.078888882190143686,9.0711512499999998,0.42495483333333334,-3.6529771249999996
1403715888559057920,-0.0034906585039886592,0.018151424220741029,0.078888882190143686,9.1201845000000006,0.41678262500000002,-3.6856659583333333
1403715888564058112,-0.0048869219055841231,0.016057029118347832,0.075398223686155036,9.0793234583333327,0.49850470833333332,-3.6448049166666663
1403715888569058048,0.0,0.019547687622336492,0.074001960284559576,9.0711512499999998,0.37592158333333331,-3.6039438749999997
1403715888574057984,-0.0027925268031909274,0.018151424220741029,0.070511301780570912,9.0956678750000002,0.34323275000000003,-3.6693215416666662
1403715888579057920,-0.0048869219055841231,0.0153588974175501,0.072605696882964116,9.1120122916666659,0.42495483333333334,-3.67749375
1403715888584058112,-0.0048869219055841231,0.020245819323134219,0.076794487087750496,9.0629790416666669,0.40861041666666664,-3.6366327083333334
1403715888589058048,-0.0013962634015954637,0.016755160819145562,0.075398223686155036,9.0548068333333322,0.37592158333333331,-3.6529771249999996
1403715888594057984,-0.00069813170079773186,0.016057029118347832,0.074700091985357306,9.0956678750000002,0.37592158333333331,-3.6529771249999996
1403715888599057920,0.0,0.024434609527920613,0.07749261878854824,9.0956678750000002,0.43312704166666666,-3.6611493333333334
1403715888604058112,-0.0041887902047863905,0.022340214425527419,0.080285145591739146,9.0874956666666655,0.37592158333333331,-3.6611493333333334
1403715888609058048,-0.0062831853071795866,0.021642082724729686,0.07958701389094143,9.0956678750000002,0.37592158333333331,-3.6611493333333334
1403715888614057984,-0.0020943951023931952,0.018151424220741029,0.080285145591739146,9.0874956666666655,0.40043820833333332,-3.6529771249999996
1403715888619057920,-0.0041887902047863905,0.020943951023931952,0.07958701389094143,9.1038400833333331,0.38409379166666668,-3.6448049166666663
1403715888624058112,-0.0027925268031909274,0.021642082724729686,0.078888882190143686,9.1447011249999992,0.38409379166666668,-3.6611493333333334
1403715888629058048,-0.0034906585039886592,0.020245819323134219,0.07958701389094143,9.0956678750000002,0.44129924999999998,-3.6366327083333334
1403715888634057984,-0.0020943951023931952,0.021642082724729686,0.080285145591739146,9.0629790416666669,0.37592158333333331,-3.6284604999999996
1403715888639057920,-0.0013962634015954637,0.020245819323134219,0.080285145591739146,9.1038400833333331,0.38409379166666668,-3.6693215416666662
1403715888644058112,0.0,0.018849555921538759,0.07609635538695278,9.0711512499999998,0.43312704166666666,-3.6693215416666662
1403715888649058048,-0.00069813170079773186,0.022340214425527419,0.075398223686155036,9.0629790416666669,0.45764366666666667,-3.6448049166666663
1403715888654057984,-0.0013962634015954637,0.018849555921538759,0.074700091985357306,9.0874956666666655,0.37592158333333331,-3.6448049166666663
1403715888659057920,-0.0013962634015954637,0.018849555921538759,0.076794487087750496,9.0629790416666669,0.43312704166666666,-3.6448049166666663
1403715888664058112,-0.0013962634015954637,0.018849555921538759,0.074700091985357306,9.0548068333333322,0.40861041666666664,-3.6121160833333334
1403715888669058048,-0.0041887902047863905,0.020245819323134219,0.07609635538695278,9.1038400833333331,0.40043820833333332,-3.6366327083333334
1403715888674057984,-0.0069813170079773184,0.016755160819145562,0.073303828583761846,9.0629790416666669,0.40043820833333332,-3.6448049166666663
1403715888679057920,-0.0041887902047863905,0.018849555921538759,0.07749261878854824,9.0711512499999998,0.43312704166666666,-3.6529771249999996
1403715888684058112,-0.0027925268031909274,0.023038346126325153,0.07609635538695278,9.1283567083333317,0.38409379166666668,-3.6693215416666662
1403715888689058048,-0.0013962634015954637,0.018151424220741029,0.07958701389094143,9.0711512499999998,0.38409379166666668,-3.6693215416666662
1403715888694057984,0.0,0.018849555921538759,0.07958701389094143,9.0221180000000007,0.392266,-3.6448049166666663
1403715888699057920,0.0027925268031909274,0.019547687622336492,0.078888882190143686,9.0793234583333327,0.40861041666666664,-3.6284604999999996
1403715888704058112,-0.00069813170079773186,0.020245819323134219,0.078888882190143686,9.0548068333333322,0.41678262500000002,-3.6202882916666663
1403715888709058048,-0.0013962634015954637,0.020943951023931952,0.078888882190143686,9.0874956666666655,0.43312704166666666,-3.6611493333333334
1403715888714057984,-0.0034906585039886592,0.017453292519943295,0.07609635538695278,9.0793234583333327,0.40043820833333332,-3.6448049166666663
1403715888719057920,-0.0020943951023931952,0.023038346126325153,0.07958701389094143,9.0793234583333327,0.40043820833333332,-3.6611493333333334
1403715888724058112,-0.0027925268031909274,0.023736477827122883,0.08237954069413235,9.0711512499999998,0.43312704166666666,-3.6366327083333334
1403715888729058048,-0.0027925268031909274,0.018151424220741029,0.075398223686155036,9.0466346249999994,0.42495483333333334,-3.6284604999999996
1403715888734057984,0.00069813170079773186,0.018151424220741029,0.078888882190143686,9.1038400833333331,0.37592158333333331,-3.67749375
1403715888739057920,0.0,0.018151424220741029,0.076794487087750496,9.0956678750000002,0.38409379166666668,-3.6529771249999996
1403715888744058112,-0.0013962634015954637,0.020245819323134219,0.076794487087750496,9.0548068333333322,0.43312704166666666,-3.6448049166666663
1403715888749058048,0.0,0.016057029118347832,0.076794487087750496,9.0711512499999998,0.38409379166666668,-3.6366327083333334
1403715888754057984,-0.00069813170079773186,0.016755160819145562,0.076794487087750496,9.0711512499999998,0.44129924999999998,-3.6529771249999996
1403715888759057920,-0.0013962634015954637,0.019547687622336492,0.074700091985357306,9.0874956666666655,0.40043820833333332,-3.6448049166666663
1403715888764058112,-0.0034906585039886592,0.019547687622336492,0.071209433481368656,9.1120122916666659,0.392266,-3.6448049166666663
1403715888769058048,-0.0013962634015954637,0.020245819323134219,0.074700091985357306,9.1365289166666663,0.44129924999999998,-3.6448049166666663
1403715888774057984,-0.0034906585039886592,0.018849555921538759,0.07749261878854824,9.0384624166666665,0.40043820833333332,-3.6529771249999996
1403715888779057920,-0.0048869219055841231,0.019547687622336492,0.076794487087750496,9.0793234583333327,0.37592158333333331,-3.6202882916666663
1403715888784058112,0.00069813170079773186,0.023038346126325153,0.080285145591739146,9.1038400833333331,0.41678262500000002,-3.6202882916666663
1403715888789058048,-0.0020943951023931952,0.020943951023931952,0.07958701389094143,9.0793234583333327,0.4494714583333333,-3.6202882916666663
1403715888794057984,-0.00069813170079773186,0.022340214425527419,0.080285145591739146,9.0793234583333327,0.38409379166666668,-3.6448049166666663
1403715888799057920,0.0,0.016755160819145562,0.078888882190143686,9.1120122916666659,0.35957716666666667,-3.6611493333333334
1403715888804058112,-0.0034906585039886592,0.018849555921538759,0.080983277292536876,9.0548068333333322,0.40043820833333332,-3.6202882916666663
1403715888809058048,-0.0041887902047863905,0.017453292519943295,0.07819075048934597,9.0793234583333327,0.392266,-3.6284604999999996
1403715888814057984,-0.0048869219055841231,0.020943951023931952,0.075398223686155036,9.0874956666666655,0.392266,-3.6284604999999996
1403715888819057920,-0.0013962634015954637,0.016755160819145562,0.075398223686155036,9.0874956666666655,0.44129924999999998,-3.6366327083333334
1403715888824058112,-0.00069813170079773186,0.019547687622336492,0.075398223686155036,9.0384624166666665,0.43312704166666666,-3.6202882916666663
1403715888829058048,-0.0027925268031909274,0.016755160819145562,0.076794487087750496,9.0302902083333318,0.392266,-3.6284604999999996
1403715888834057984,-0.0034906585039886592,0.018849555921538759,0.07609635538695278,9.1038400833333331,0.45764366666666667,-3.6366327083333334
1403715888839057920,-0.0013962634015954637,0.018151424220741029,0.078888882190143686,9.0629790416666669,0.42495483333333334,-3.6039438749999997
1403715888844058112,-0.00069813170079773186,0.019547687622336492,0.076794487087750496,9.0711512499999998,0.35957716666666667,-3.6039438749999997
1403715888849058048,-0.0027925268031909274,0.016755160819145562,0.074700091985357306,9.0793234583333327,0.41678262500000002,-3.6039438749999997
1403715888854057984,-0.0013962634015954637,0.018849555921538759,0.076794487087750496,9.0711512499999998,0.4494714583333333,-3.6202882916666663
1403715888859057920,-0.0013962634015954637,0.018849555921538759,0.075398223686155036,9.1283567083333317,0.37592158333333331,-3.6366327083333334
1403715888864058112,-0.0027925268031909274,0.017453292519943295,0.07749261878854824,9.1038400833333331,0.392266,-3.6529771249999996
1403715888869058048,-0.00069813170079773186,0.021642082724729686,0.076794487087750496,9.1038400833333331,0.41678262500000002,-3.6202882916666663
1403715888874057984,-0.0013962634015954637,0.022340214425527419,0.078888882190143686,9.0629790416666669,0.40043820833333332,-3.6284604999999996
1403715888879057920,-0.0034906585039886592,0.020245819323134219,0.080285145591739146,9.0874956666666655,0.392266,-3.6366327083333334
1403715888884058112,-0.0020943951023931952,0.014660765716752367,0.07819075048934597,9.0793234583333327,0.41678262500000002,-3.6448049166666663
1403715888889058048,-0.0013962634015954637,0.020245819323134219,0.076794487087750496,9.0874956666666655,0.42495483333333334,-3.6611493333333334
1403715888894057984,-0.00069813170079773186,0.021642082724729686,0.078888882190143686,9.1120122916666659,0.37592158333333331,-3.6693215416666662
1403715888899057920,-0.0013962634015954637,0.023038346126325153,0.08307767239493008,9.1038400833333331,0.4494714583333333,-3.6448049166666663
1403715888904058112,0.0013962634015954637,0.021642082724729686,0.080285145591739146,9.0629790416666669,0.47398808333333331,-3.6121160833333334
1403715888909058048,-0.00069813170079773186,0.018849555921538759,0.07609635538695278,9.1120122916666659,0.40043820833333332,-3.6693215416666662
1403715888914057984,-0.0048869219055841231,0.016755160819145562,0.076794487087750496,9.1201845000000006,0.44129924999999998,-3.6529771249999996
1403715888919057920,-0.0034906585039886592,0.018151424220741029,0.076794487087750496,9.0793234583333327,0.41678262500000002,-3.6529771249999996
1403715888924058112,0.0013962634015954637,0.019547687622336492,0.078888882190143686,9.0874956666666655,0.41678262500000002,-3.6693215416666662
1403715888929058048,-0.0041887902047863905,0.018849555921538759,0.076794487087750496,9.1283567083333317,0.38409379166666668,-3.6856659583333333
1403715888934057984,-0.0034906585039886592,0.019547687622336492,0.075398223686155036,9.0221180000000007,0.48216029166666663,-3.6284604999999996
1403715888939057920,-0.0020943951023931952,0.018849555921538759,0.07819075048934597,9.0221180000000007,0.392266,-3.6366327083333334
1403715888944058112,-0.0076794487087750501,0.022340214425527419,0.076794487087750496,9.0793234583333327,0.44129924999999998,-3.6693215416666662
1403715888949058048,-0.0041887902047863905,0.016755160819145562,0.07609635538695278,9.0548068333333322,0.44129924999999998,-3.6039438749999997
1403715888954057984,0.0,0.021642082724729686,0.080983277292536876,9.0548068333333322,0.40043820833333332,-3.6366327083333334
1403715888959057920,-0.0027925268031909274,0.020245819323134219,0.076794487087750496,9.1038400833333331,0.35957716666666667,-3.67749375
1403715888964058112,0.0,0.017453292519943295,0.080983277292536876,9.1038400833333331,0.37592158333333331,-3.6284604999999996
1403715888969058048,0.0,0.020245819323134219,0.07958701389094143,9.0874956666666655,0.41678262500000002,-3.6202882916666663
1403715888974057984,-0.0034906585039886592,0.018849555921538759,0.07819075048934597,9.0956678750000002,0.392266,-3.6366327083333334
1403715888979057920,0.00069813170079773186,0.017453292519943295,0.07749261878854824,9.1201845000000006,0.40861041666666664,-3.6448049166666663
1403715888984058112,-0.0027925268031909274,0.018151424220741029,0.07609635538695278,9.0548068333333322,0.43312704166666666,-3.6284604999999996
1403715888989058048,-0.0013962634015954637,0.018849555921538759,0.076794487087750496,9.0874956666666655,0.38409379166666668,-3.6366327083333334
1403715888994057984,-0.0041887902047863905,0.020943951023931952,0.075398223686155036,9.1201845000000006,0.42495483333333334,-3.6202882916666663
1403715888999057920,-0.0055850536063818549,0.018849555921538759,0.07609635538695278,9.0302902083333318,0.43312704166666666,-3.6202882916666663
1403715889004058112,0.00069813170079773186,0.020943951023931952,0.07749261878854824,9.0793234583333327,0.37592158333333331,-3.6529771249999996
1403715889009058048,-0.0013962634015954637,0.019547687622336492,0.07609635538695278,9.0874956666666655,0.392266,-3.6693215416666662
1403715889014057984,-0.0027925268031909274,0.019547687622336492,0.074001960284559576,9.0629790416666669,0.44129924999999998,-3.6284604999999996
1403715889019057920,-0.0027925268031909274,0.018849555921538759,0.07609635538695278,9.0711512499999998,0.41678262500000002,-3.6448049166666663
1403715889024058112,-0.0020943951023931952,0.019547687622336492,0.078888882190143686,9.1120122916666659,0.34323275000000003,-3.6529771249999996
1403715889029058048,-0.00069813170079773186,0.019547687622336492,0.075398223686155036,9.0956678750000002,0.37592158333333331,-3.6448049166666663
1403715889034057984,-0.0027925268031909274,0.016755160819145562,0.07749261878854824,9.0466346249999994,0.40861041666666664,-3.5549106249999998
1403715889039057920,-0.0034906585039886592,0.020245819323134219,0.07819075048934597,9.1201845000000006,0.392266,-3.6284604999999996
1403715889044058112,-0.0027925268031909274,0.021642082724729686,0.07819075048934597,9.1120122916666659,0.41678262500000002,-3.67749375
1403715889049058048,-0.0034906585039886592,0.018151424220741029,0.075398223686155036,9.0384624166666665,0.392266,-3.6448049166666663
1403715889054057984,-0.0013962634015954637,0.022340214425527419,0.07819075048934597,9.1120122916666659,0.36774937499999999,-3.6611493333333334
1403715889059057920,-0.0013962634015954637,0.018849555921538759,0.07749261878854824,9.0956678750000002,0.41678262500000002,-3.6284604999999996
1403715889064058112,-0.0027925268031909274,0.017453292519943295,0.07819075048934597,9.0793234583333327,0.40861041666666664,-3.5957716666666664
1403715889069058048,-0.0020943951023931952,0.020245819323134219,0.07958701389094143,9.1038400833333331,0.35957716666666667,-3.6121160833333334
1403715889074057984,-0.0027925268031909274,0.016057029118347832,0.075398223686155036,9.1038400833333331,0.42495483333333334,-3.6448049166666663
1403715889079057920,-0.0020943951023931952,0.016755160819145562,0.07609635538695278,9.0466346249999994,0.40861041666666664,-3.6284604999999996
1403715889084058112,-0.0027925268031909274,0.019547687622336492,0.07819075048934597,9.0629790416666669,0.44129924999999998,-3.6039438749999997
1403715889089058048,-0.0013962634015954637,0.021642082724729686,0.076794487087750496,9.0956678750000002,0.41678262500000002,-3.6529771249999996
1403715889094057984,-0.0020943951023931952,0.017453292519943295,0.080285145591739146,9.0956678750000002,0.46581587499999999,-3.6611493333333334
1403715889099057920,-0.0013962634015954637,0.016057029118347832,0.076794487087750496,9.0629790416666669,0.42495483333333334,-3.6448049166666663
1403715889104058112,-0.0027925268031909274,0.018849555921538759,0.07749261878854824,9.0956678750000002,0.392266,-3.67749375
1403715889109058048,-0.0027925268031909274,0.018849555921538759,0.07749261878854824,9.0629790416666669,0.45764366666666667,-3.6284604999999996
1403715889114057984,-0.0013962634015954637,0.018849555921538759,0.07609635538695278,9.0466346249999994,0.42495483333333334,-3.6202882916666663
1403715889119057920,-0.0048869219055841231,0.020943951023931952,0.075398223686155036,9.1120122916666659,0.40043820833333332,-3.67749375
1403715889124058112,-0.0027925268031909274,0.014660765716752367,0.07819075048934597,9.1201845000000006,0.37592158333333331,-3.67749375
1403715889129058048,-0.0020943951023931952,0.018849555921538759,0.07819075048934597,9.0874956666666655,0.44129924999999998,-3.6529771249999996
1403715889134057984,-0.0034906585039886592,0.018849555921538759,0.07749261878854824,9.0874956666666655,0.38409379166666668,-3.6202882916666663
1403715889139057920,0.0,0.018151424220741029,0.07819075048934597,9.1283567083333317,0.37592158333333331,-3.6611493333333334
1403715889144058112,-0.00069813170079773186,0.019547687622336492,0.07609635538695278,9.0711512499999998,0.41678262500000002,-3.6529771249999996
1403715889149058048,-0.0013962634015954637,0.021642082724729686,0.07958701389094143,9.0384624166666665,0.40861041666666664,-3.6202882916666663
1403715889154057984,-0.0034906585039886592,0.020943951023931952,0.07609635538695278,9.1528733333333321,0.40861041666666664,-3.6693215416666662
1403715889159057920,-0.0013962634015954637,0.022340214425527419,0.080983277292536876,9.0711512499999998,0.41678262500000002,-3.6448049166666663
1403715889164058112,-0.0041887902047863905,0.019547687622336492,0.07609635538695278,9.0711512499999998,0.40043820833333332,-3.6448049166666663
1403715889169058048,0.0013962634015954637,0.020943951023931952,0.078888882190143686,9.0793234583333327,0.4494714583333333,-3.67749375
1403715889174057984,-0.0027925268031909274,0.020245819323134219,0.075398223686155036,9.0466346249999994,0.41678262500000002,-3.6284604999999996
1403715889179057920,-0.0034906585039886592,0.023736477827122883,0.080285145591739146,8.9976013749999986,0.41678262500000002,-3.5549106249999998
1403715889184058112,-0.0034906585039886592,0.021642082724729686,0.07819075048934597,9.0793234583333327,0.41678262500000002,-3.6529771249999996
1403715889189058048,-0.0013962634015954637,0.018151424220741029,0.07819075048934597,9.1365289166666663,0.40861041666666664,-3.6448049166666663
1403715889194057984,-0.0041887902047863905,0.018151424220741029,0.074001960284559576,9.0629790416666669,0.44129924999999998,-3.5957716666666664
1403715889199057920,-0.0020943951023931952,0.016057029118347832,0.074700091985357306,9.0711512499999998,0.36774937499999999,-3.6284604999999996
1403715889204058112,-0.0048869219055841231,0.017453292519943295,0.07958701389094143,9.1120122916666659,0.40861041666666664,-3.6529771249999996
1403715889209058048,-0.0048869219055841231,0.018849555921538759,0.078888882190143686,9.0302902083333318,0.41678262500000002,-3.6039438749999997
1403715889214057984,-0.0013962634015954637,0.018849555921538759,0.078888882190143686,9.0548068333333322,0.44129924999999998,-3.6039438749999997
1403715889219057920,0.00069813170079773186,0.0153588974175501,0.075398223686155036,9.1038400833333331,0.392266,-3.6856659583333333
1403715889224058112,-0.0034906585039886592,0.018849555921538759,0.075398223686155036,9.0956678750000002,0.4494714583333333,-3.6611493333333334
1403715889229058048,-0.0034906585039886592,0.020245819323134219,0.07749261878854824,9.0793234583333327,0.42495483333333334,-3.6693215416666662
1403715889234057984,-0.0048869219055841231,0.020943951023931952,0.07609635538695278,9.1120122916666659,0.35140495833333335,-3.6448049166666663
1403715889239057920,-0.0048869219055841231,0.013962634015954637,0.075398223686155036,9.0874956666666655,0.392266,-3.6448049166666663
1403715889244058112,-0.00069813170079773186,0.016755160819145562,0.078888882190143686,9.0629790416666669,0.41678262500000002,-3.6611493333333334
1403715889249058048,-0.0013962634015954637,0.021642082724729686,0.076794487087750496,9.0629790416666669,0.40043820833333332,-3.6693215416666662
1403715889254057984,-0.0013962634015954637,0.023038346126325153,0.07819075048934597,9.1201845000000006,0.40861041666666664,-3.6856659583333333
1403715889259057920,0.00069813170079773186,0.018849555921538759,0.080285145591739146,9.0384624166666665,0.4903325,-3.67749375
1403715889264058112,-0.00069813170079773186,0.019547687622336492,0.07819075048934597,9.0466346249999994,0.40043820833333332,-3.6448049166666663
1403715889269058048,-0.0034906585039886592,0.020943951023931952,0.078888882190143686,9.0711512499999998,0.37592158333333331,-3.6448049166666663
1403715889274057984,-0.0048869219055841231,0.018151424220741029,0.07819075048934597,9.0139457916666661,0.392266,-3.5957716666666664
1403715889279057920,-0.0041887902047863905,0.016755160819145562,0.075398223686155036,9.0629790416666669,0.38409379166666668,-3.6039438749999997
1403715889284058112,0.0,0.020245819323134219,0.074700091985357306,9.0956678750000002,0.37592158333333331,-3.5957716666666664
1403715889289058048,0.0,0.017453292519943295,0.074700091985357306,9.0956678750000002,0.40861041666666664,-3.6448049166666663
1403715889294057984,-0.00069813170079773186,0.020245819323134219,0.073303828583761846,9.0548068333333322,0.43312704166666666,-3.6938381666666662
1403715889299057920,-0.0020943951023931952,0.019547687622336492,0.07819075048934597,9.0956678750000002,0.44129924999999998,-3.6611493333333334
1403715889304058112,-0.00069813170079773186,0.016057029118347832,0.074700091985357306,9.1120122916666659,0.41678262500000002,-3.6529771249999996
1403715889309058048,0.00069813170079773186,0.020245819323134219,0.08168140899333462,9.1038400833333331,0.4494714583333333,-3.6202882916666663
1403715889314057984,-0.00069813170079773186,0.021642082724729686,0.07819075048934597,9.1038400833333331,0.40861041666666664,-3.6202882916666663
1403715889319057920,-0.0034906585039886592,0.020245819323134219,0.07609635538695278,9.1447011249999992,0.42495483333333334,-3.67749375
1403715889324058112,-0.00069813170079773186,0.016755160819145562,0.074700091985357306,9.0793234583333327,0.42495483333333334,-3.6366327083333334
1403715889329058048,0.0,0.021642082724729686,0.080983277292536876,9.0956678750000002,0.40861041666666664,-3.6448049166666663
1403715889334057984,-0.0048869219055841231,0.021642082724729686,0.07958701389094143,9.1038400833333331,0.40043820833333332,-3.6529771249999996
1403715889339057920,-0.0027925268031909274,0.021642082724729686,0.078888882190143686,9.0874956666666655,0.45764366666666667,-3.6448049166666663
1403715889344058112,-0.0020943951023931952,0.023038346126325153,0.080983277292536876,9.0711512499999998,0.4494714583333333,-3.6529771249999996
1403715889349058048,-0.0013962634015954637,0.020943951023931952,0.07819075048934597,9.0793234583333327,0.40861041666666664,-3.6611493333333334
1403715889354057984,-0.00069813170079773186,0.016755160819145562,0.076794487087750496,9.1120122916666659,0.40861041666666664,-3.6448049166666663
1403715889359057920,-0.00069813170079773186,0.018151424220741029,0.078888882190143686,9.0874956666666655,0.43312704166666666,-3.6611493333333334
1403715889364058112,0.00069813170079773186,0.016755160819145562,0.076794487087750496,9.1283567083333317,0.38409379166666668,-3.6693215416666662
1403715889369058048,-0.0020943951023931952,0.018151424220741029,0.074001960284559576,9.0793234583333327,0.392266,-3.6448049166666663
1403715889374057984,-0.0020943951023931952,0.016755160819145562,0.073303828583761846,9.0711512499999998,0.42495483333333334,-3.6284604999999996
1403715889379057920,-0.0020943951023931952,0.020245819323134219,0.076794487087750496,9.1201845000000006,0.41678262500000002,-3.6284604999999996
1403715889384058112,-0.0055850536063818549,0.018151424220741029,0.076794487087750496,9.1283567083333317,0.47398808333333331,-3.6448049166666663
1403715889389058048,-0.0055850536063818549,0.023038346126325153,0.076794487087750496,9.0793234583333327,0.46581587499999999,-3.6284604999999996
1403715889394057984,-0.0027925268031909274,0.020943951023931952,0.074700091985357306,9.0711512499999998,0.42495483333333334,-3.6284604999999996
1403715889399057920,-0.0041887902047863905,0.020245819323134219,0.07749261878854824,9.0956678750000002,0.38409379166666668,-3.6284604999999996
1403715889404058112,-0.0013962634015954637,0.018849555921538759,0.07819075048934597,9.0466346249999994,0.42495483333333334,-3.6121160833333334
1403715889409058048,-0.0041887902047863905,0.023038346126325153,0.07819075048934597,9.0548068333333322,0.48216029166666663,-3.587599458333333
1403715889414057984,-0.0020943951023931952,0.019547687622336492,0.07749261878854824,9.0629790416666669,0.35140495833333335,-3.6121160833333334
1403715889419057920,-0.0041887902047863905,0.0153588974175501,0.074700091985357306,9.1120122916666659,0.40043820833333332,-3.67749375
1403715889424058112,-0.0013962634015954637,0.019547687622336492,0.080285145591739146,9.0874956666666655,0.40043820833333332,-3.6121160833333334
1403715889429058048,-0.0034906585039886592,0.020245819323134219,0.08237954069413235,9.0629790416666669,0.38409379166666668,-3.6202882916666663
1403715889434057984,-0.0027925268031909274,0.020943951023931952,0.080285145591739146,9.1283567083333317,0.38409379166666668,-3.6448049166666663
1403715889439057920,-0.0027925268031909274,0.020245819323134219,0.080983277292536876,9.0139457916666661,0.41678262500000002,-3.6202882916666663
1403715889444058112,-0.0013962634015954637,0.016057029118347832,0.08237954069413235,9.0629790416666669,0.37592158333333331,-3.6529771249999996
1403715889449058048,-0.0027925268031909274,0.018151424220741029,0.07819075048934597,9.1038400833333331,0.44129924999999998,-3.6693215416666662
1403715889454057984,-0.0020943951023931952,0.018849555921538759,0.076794487087750496,9.0793234583333327,0.4494714583333333,-3.6529771249999996
1403715889459057920,-0.0020943951023931952,0.023038346126325153,0.07958701389094143,9.0793234583333327,0.40861041666666664,-3.6366327083333334
1403715889464058112,-0.0013962634015954637,0.023736477827122883,0.07819075048934597,9.1120122916666659,0.35957716666666667,-3.6366327083333334
1403715889469058048,-0.0034906585039886592,0.020943951023931952,0.07819075048934597,9.0956678750000002,0.40861041666666664,-3.6448049166666663
1403715889474057984,-0.0027925268031909274,0.018151424220741029,0.074700091985357306,9.0629790416666669,0.40043820833333332,-3.6202882916666663
1403715889479057920,-0.0020943951023931952,0.022340214425527419,0.07749261878854824,9.1447011249999992,0.35140495833333335,-3.6448049166666663
1403715889484058112,-0.0013962634015954637,0.020245819323134219,0.07819075048934597,9.0956678750000002,0.40861041666666664,-3.6284604999999996
1403715889489058048,-0.0048869219055841231,0.018151424220741029,0.07819075048934597,9.0956678750000002,0.44129924999999998,-3.6202882916666663
1403715889494057984,-0.0020943951023931952,0.022340214425527419,0.076794487087750496,9.0711512499999998,0.36774937499999999,-3.6611493333333334
1403715889499057920,-0.0041887902047863905,0.023736477827122883,0.076794487087750496,9.0956678750000002,0.40861041666666664,-3.6693215416666662
1403715889504058112,-0.0027925268031909274,0.016057029118347832,0.080285145591739146,9.0466346249999994,0.392266,-3.6202882916666663
1403715889509058048,0.00069813170079773186,0.018849555921538759,0.080983277292536876,9.0711512499999998,0.41678262500000002,-3.5957716666666664
1403715889514057984,-0.0013962634015954637,0.020943951023931952,0.07819075048934597,9.1038400833333331,0.37592158333333331,-3.67749375
1403715889519057920,-0.00069813170079773186,0.017453292519943295,0.078888882190143686,9.0956678750000002,0.40043820833333332,-3.6448049166666663
1403715889524058112,-0.00069813170079773186,0.021642082724729686,0.07819075048934597,9.0466346249999994,0.4494714583333333,-3.6039438749999997
1403715889529058048,-0.0013962634015954637,0.023038346126325153,0.07819075048934597,9.1120122916666659,0.37592158333333331,-3.6366327083333334
1403715889534057984,-0.0013962634015954637,0.020943951023931952,0.08168140899333462,9.0711512499999998,0.43312704166666666,-3.6529771249999996
1403715889539057920,-0.0020943951023931952,0.020943951023931952,0.080983277292536876,9.0548068333333322,0.45764366666666667,-3.6366327083333334
1403715889544058112,0.0,0.016755160819145562,0.07958701389094143,9.0793234583333327,0.38409379166666668,-3.6693215416666662
1403715889549058048,-0.0027925268031909274,0.018151424220741029,0.07749261878854824,9.0711512499999998,0.42495483333333334,-3.6856659583333333
1403715889554057984,-0.0034906585039886592,0.018849555921538759,0.07749261878854824,9.0874956666666655,0.44129924999999998,-3.6448049166666663
1403715889559057920,-0.00069813170079773186,0.020943951023931952,0.07609635538695278,9.1038400833333331,0.42495483333333334,-3.6448049166666663
1403715889564058112,-0.0020943951023931952,0.017453292519943295,0.074700091985357306,9.1038400833333331,0.392266,-3.6284604999999996
1403715889569058048,-0.0013962634015954637,0.019547687622336492,0.075398223686155036,9.0956678750000002,0.44129924999999998,-3.6284604999999996
1403715889574057984,-0.0013962634015954637,0.023038346126325153,0.07819075048934597,9.0793234583333327,0.392266,-3.6202882916666663
1403715889579057920,-0.0020943951023931952,0.019547687622336492,0.074700091985357306,9.1447011249999992,0.392266,-3.6693215416666662
1403715889584058112,-0.0013962634015954637,0.016755160819145562,0.07749261878854824,9.0874956666666655,0.40861041666666664,-3.6529771249999996
1403715889589058048,-0.00069813170079773186,0.018849555921538759,0.07749261878854824,9.0711512499999998,0.4494714583333333,-3.5794272499999997
1403715889594057984,-0.00069813170079773186,0.020943951023931952,0.07749261878854824,9.0793234583333327,0.40043820833333332,-3.6284604999999996
1403715889599057920,0.0020943951023931952,0.020245819323134219,0.07749261878854824,9.0956678750000002,0.4494714583333333,-3.6202882916666663
1403715889604058112,0.0034906585039886592,0.017453292519943295,0.07609635538695278,9.0793234583333327,0.42495483333333334,-3.5957716666666664
1403715889609058048,-0.0020943951023931952,0.021642082724729686,0.080285145591739146,9.0874956666666655,0.41678262500000002,-3.6202882916666663
1403715889614057984,-0.0020943951023931952,0.019547687622336492,0.07958701389094143,9.1038400833333331,0.42495483333333334,-3.67749375
1403715889619057920,-0.0041887902047863905,0.023038346126325153,0.078888882190143686,9.0793234583333327,0.4903325,-3.6366327083333334
1403715889624058112,-0.0041887902047863905,0.020245819323134219,0.07819075048934597,9.0793234583333327,0.4494714583333333,-3.6202882916666663
1403715889629058048,-0.0020943951023931952,0.023038346126325153,0.076794487087750496,9.0874956666666655,0.41678262500000002,-3.6202882916666663
1403715889634057984,-0.0020943951023931952,0.017453292519943295,0.07609635538695278,9.1038400833333331,0.46581587499999999,-3.5957716666666664
1403715889639057920,0.0013962634015954637,0.019547687622336492,0.07749261878854824,9.0793234583333327,0.40861041666666664,-3.6448049166666663
1403715889644058112,-0.0041887902047863905,0.017453292519943295,0.07749261878854824,9.0956678750000002,0.35957716666666667,-3.6529771249999996
1403715889649058048,-0.0041887902047863905,0.019547687622336492,0.080285145591739146,9.0874956666666655,0.4494714583333333,-3.6611493333333334
1403715889654057984,-0.00069813170079773186,0.021642082724729686,0.07958701389094143,9.0466346249999994,0.45764366666666667,-3.6448049166666663
1403715889659057920,-0.0048869219055841231,0.017453292519943295,0.07958701389094143,9.0793234583333327,0.35140495833333335,-3.6529771249999996
1403715889664058112,-0.0041887902047863905,0.020245819323134219,0.080285145591739146,9.1201845000000006,0.392266,-3.6529771249999996
1403715889669058048,-0.0055850536063818549,0.020245819323134219,0.073303828583761846,9.0629790416666669,0.45764366666666667,-3.6448049166666663
1403715889674057984,-0.00069813170079773186,0.022340214425527419,0.07609635538695278,9.0548068333333322,0.41678262500000002,-3.6529771249999996
1403715889679057920,-0.0013962634015954637,0.020245819323134219,0.078888882190143686,9.0874956666666655,0.36774937499999999,-3.6693215416666662
1403715889684058112,-0.0027925268031909274,0.018151424220741029,0.07958701389094143,9.0384624166666665,0.35957716666666667,-3.6529771249999996
1403715889689058048,0.0,0.022340214425527419,0.080285145591739146,9.0629790416666669,0.35957716666666667,-3.6284604999999996
1403715889694057984,0.0020943951023931952,0.020943951023931952,0.080983277292536876,9.0548068333333322,0.392266,-3.7183547916666662
1403715889699057920,-0.0013962634015954637,0.023736477827122883,0.07958701389094143,8.9894291666666657,0.48216029166666663,-3.6856659583333333
1403715889704058112,-0.0090757121103705145,0.016755160819145562,0.085870199198121014,9.0711512499999998,0.71098212499999991,-3.702010375
1403715889709058048,-0.021642082724729686,0.014660765716752367,0.089360857702109678,9.1283567083333317,0.62108783333333339,-3.7510436249999999
1403715889714057984,-0.028623399732707,0.022340214425527419,0.087964594300514204,9.0384624166666665,0.392266,-3.6202882916666663
1403715889719057920,-0.011868238913561441,0.0055850536063818549,0.094945911308491532,9.2100787916666658,-0.098066500000000001,-3.6611493333333334
1403715889724058112,0.016057029118347832,0.043284165449459372,0.069813170079773182,9.0548068333333322,-0.66194887499999999,-3.3832942499999996
1403715889729058048,0.067718774977379978,0.008377580409572781,0.057944931166211737,9.2345954166666662,-0.24516625,-3.6121160833333334
1403715889734057984,0.084473935796525554,0.013962634015954637,0.050963614158234416,9.0221180000000007,0.6701210833333332,-3.6529771249999996
1403715889739057920,0.049567350756638949,0.038397243543875248,0.037000980142279788,8.8505016249999997,1.6507860833333332,-3.6366327083333334
1403715889744058112,-0.019547687622336492,-0.0013962634015954637,0.069813170079773182,9.0548068333333322,2.2228406666666665,-3.8981433750000001
1403715889749058048,-0.098436569812480182,0.0041887902047863905,0.080285145591739146,8.883190458333333,2.0185354583333335,-3.6284604999999996
1403715889754057984,-0.13823007675795088,0.014660765716752367,0.11309733552923257,9.332661916666666,0.38409379166666668,-3.8164212916666664
1403715889759057920,-0.11379546723003027,0.029321531433504733,0.093549647906896058,8.8995348749999987,-0.91528733333333334,-3.4404997083333333
1403715889764058112,-0.032812189937493394,0.00069813170079773186,0.11798425743481668,9.0629790416666669,-1.0460426666666667,-3.3832942499999996
1403715889769058048,0.034208453339088861,0.018151424220741029,0.092851516206098328,9.3980395833333326,-0.91528733333333334,-3.5549106249999998
1403715889774057984,0.078888882190143686,0.05445427266222308,0.063529984772593598,9.1038400833333331,-0.41678262500000002,-3.3260887916666664
1403715889779057920,0.097738438111682452,-0.01117010721276371,0.065624379874986788,9.2509398333333337,0.59657120833333332,-3.6529771249999996
1403715889784058112,0.08307767239493008,0.02652900463031381,0.07819075048934597,9.5533115416666661,1.1277647500000001,-3.8899711666666663
1403715889789058048,0.02722713633111154,0.055850536063818547,0.064926248174189058,8.4500634166666657,1.4546530833333333,-3.6938381666666662
1403715889794057984,-0.016057029118347832,0.008377580409572781,0.10192722831646883,9.2100787916666658,1.4873419166666666,-3.7837324583333327
1403715889799057920,-0.057246799465414,0.033510321638291124,0.092153384505300612,9.0384624166666665,0.93163174999999998,-3.7428714166666661
1403715889804058112,-0.07819075048934597,0.018151424220741029,0.097040306410884708,9.1365289166666663,0.7028099166666667,-3.7346992083333332
1403715889809058048,-0.07958701389094143,0.017453292519943295,0.084473935796525554,8.9158792916666663,0.17161637500000002,-3.4977051666666665
1403715889814057984,-0.046774823953448029,0.031415926535897934,0.087266462599716474,9.4470728333333334,-0.53119354166666666,-3.5467384166666669
1403715889819057920,0.0027925268031909274,0.0153588974175501,0.069115038378975438,8.5563021250000002,-0.5475379583333333,-3.3832942499999996
1403715889824058112,0.039793506945470715,0.028623399732707,0.05445427266222308,9.9619219583333329,-0.32688833333333334,-3.7837324583333327
1403715889829058048,0.065624379874986788,0.050963614158234416,0.060039326268604934,8.6216797916666668,0.196133,-3.5222217916666665
1403715889834057984,0.072605696882964116,0.033510321638291124,0.05375614096142535,8.8423294166666651,0.80904862499999997,-3.4977051666666665
1403715889839057920,0.046774823953448029,0.021642082724729686,0.07749261878854824,9.3571785416666664,1.1849702083333333,-3.8327657083333331
1403715889844058112,-0.0027925268031909274,0.041887902047863905,0.062831853071795868,8.7851239583333331,1.32389775,-3.6202882916666663
1403715889849058048,-0.040491638646268438,-0.00069813170079773186,0.097738438111682452,8.9077070833333334,0.97249279166666658,-3.6529771249999996
1403715889854057984,-0.061435589670200401,0.025132741228718346,0.090757121103705138,9.0139457916666661,0.6292600416666666,-3.5303939999999998
1403715889859057920,-0.058643062867009467,0.0069813170079773184,0.1075122819228507,9.0711512499999998,0.10623870833333333,-3.6366327083333334
1403715889864058112,-0.040491638646268438,0.013264502315156905,0.092153384505300612,9.3163174999999985,-0.122583125,-3.4977051666666665
1403715889869058048,-0.0097738438111682462,0.030019663134302467,0.087266462599716474,9.1610455416666667,-0.31871612500000002,-3.5140495833333332
1403715889874057984,0.02722713633111154,0.020245819323134219,0.071209433481368656,8.9403959166666649,-0.35957716666666667,-3.4813607499999994
1403715889879057920,0.050963614158234416,0.020943951023931952,0.065624379874986788,9.5451393333333332,0.0,-3.8164212916666664
1403715889884058112,0.058643062867009467,0.05375614096142535,0.064926248174189058,8.9730847499999999,0.69463770833333327,-3.5140495833333332
1403715889889058048,0.041189770347066175,0.02722713633111154,0.08168140899333462,8.9485681249999995,0.89077070833333327,-3.6448049166666663
1403715889894057984,0.014660765716752367,0.0307177948351002,0.076794487087750496,8.9158792916666663,1.0296982499999998,-3.587599458333333
1403715889899057920,-0.025132741228718346,0.0048869219055841231,0.08307767239493008,8.9240514999999991,0.97249279166666658,-3.5712550416666669
1403715889904058112,-0.043284165449459372,0.0048869219055841231,0.071907565182166372,9.2591120416666666,0.40861041666666664,-3.7346992083333332
1403715889909058048,-0.027925268031909273,0.023038346126325153,0.066322511575784518,9.3490063333333335,0.081722083333333334,-3.7346992083333332
1403715889914057984,-0.01117010721276371,0.0097738438111682462,0.084473935796525554,8.9077070833333334,0.18796079166666665,-3.5794272499999997
1403715889919057920,-0.0069813170079773184,0.033510321638291124,0.091455252804502868,9.422556208333333,0.6292600416666666,-3.7428714166666661
1403715889924058112,-0.020943951023931952,0.038397243543875248,0.094945911308491532,8.9403959166666649,0.93163174999999998,-3.5303939999999998
1403715889929058048,-0.043982297150257102,0.020245819323134219,0.094247779607693802,8.8423294166666651,0.61291562499999996,-3.4486719166666666
1403715889934057984,-0.045378560551852569,0.017453292519943295,0.07958701389094143,9.0139457916666661,-0.016344416666666667,-3.5712550416666669
1403715889939057920,-0.0041887902047863905,0.012566370614359173,0.067020643276582248,9.2591120416666666,-0.96432058333333326,-3.6366327083333334
1403715889944058112,0.066322511575784518,0.0153588974175501,0.064926248174189058,9.2509398333333337,-0.85808187499999988,-3.6284604999999996
1403715889949058048,0.12077678423800758,0.036302848441482058,0.059341194567807204,9.3571785416666664,0.30237170833333332,-3.7919046666666665
1403715889954057984,0.099832833214075656,0.039095375244672985,0.078888882190143686,8.6053353749999992,1.6753027083333332,-3.5058773749999999
1403715889959057920,0.013962634015954637,0.016755160819145562,0.07819075048934597,9.1201845000000006,2.2963905416666663,-3.906315583333333
1403715889964058112,-0.069813170079773182,0.02652900463031381,0.07819075048934597,8.9077070833333334,1.8714357083333331,-3.5712550416666669
1403715889969058048,-0.11519173063162574,-0.01117010721276371,0.093549647906896058,8.8586738333333326,0.81722083333333329,-3.6366327083333334
1403715889974057984,-0.1075122819228507,0.012566370614359173,0.078888882190143686,9.2182509999999986,-0.3105439166666667,-3.6938381666666662
1403715889979057920,-0.047472955654245766,0.01117010721276371,0.096342174710086978,9.3163174999999985,-0.94797616666666662,-3.5222217916666665
1403715889984058112,0.0048869219055841231,0.01117010721276371,0.094945911308491532,9.1692177499999996,-0.58022679166666657,-3.5467384166666669
1403715889989058048,0.046774823953448029,0.039095375244672985,0.071209433481368656,9.1038400833333331,-0.17161637500000002,-3.4650163333333333
1403715889994057984,0.067020643276582248,0.020245819323134219,0.085870199198121014,9.1120122916666659,0.17161637500000002,-3.4078108749999996
1403715889999057920,0.057246799465414,0.0034906585039886592,0.071907565182166372,8.9240514999999991,0.75184316666666662,-3.8082490833333327
1403715890004058112,0.037699111843077518,0.0153588974175501,0.060039326268604934,9.0057735833333332,0.76001537499999994,-3.5712550416666669
1403715890009058048,0.018849555921538759,0.0076794487087750501,0.090757121103705138,9.2836286666666652,0.98883720833333322,-3.7919046666666665
1403715890014057984,-0.018849555921538759,0.017453292519943295,0.085172067497323284,8.9730847499999999,1.2176590416666666,-3.7346992083333332
1403715890019057920,-0.048171087355043489,0.02652900463031381,0.099832833214075656,9.1528733333333321,0.95614837499999994,-3.5957716666666664
1403715890024058112,-0.070511301780570912,0.013962634015954637,0.10332349171806432,8.9730847499999999,0.6701210833333332,-3.6448049166666663
1403715890029058048,-0.067718774977379978,0.0034906585039886592,0.08168140899333462,9.0302902083333318,-0.057205458333333334,-3.4159830833333329
1403715890034057984,-0.0307177948351002,0.018849555921538759,0.095644043009289262,9.2509398333333337,-0.52302133333333334,-3.5385662083333331
1403715890039057920,0.013962634015954637,0.016057029118347832,0.071209433481368656,9.0629790416666669,-0.36774937499999999,-3.587599458333333
1403715890044058112,0.048171087355043489,0.019547687622336492,0.069813170079773182,9.4143839999999983,-0.016344416666666667,-3.7510436249999999
1403715890049058048,0.064228116473391328,0.041887902047863905,0.067718774977379978,8.8995348749999987,0.49850470833333332,-3.5467384166666669
1403715890054057984,0.05166174585903216,0.023038346126325153,0.062133721370998138,9.0384624166666665,1.0460426666666667,-3.7592158333333332
1403715890059057920,0.013962634015954637,0.033510321638291124,0.062831853071795868,8.8505016249999997,0.98066500000000001,-3.5303939999999998
1403715890064058112,-0.013264502315156905,0.012566370614359173,0.08307767239493008,8.7687795416666656,1.0869037083333333,-3.6366327083333334
1403715890069058048,-0.045378560551852569,0.0027925268031909274,0.078888882190143686,9.0139457916666661,0.75184316666666662,-3.7101825833333333
1403715890074057984,-0.05166174585903216,0.011868238913561441,0.089360857702109678,9.1365289166666663,0.40043820833333332,-3.6611493333333334
1403715890079057920,-0.047472955654245766,0.01117010721276371,0.08377580409572781,9.1773899583333325,0.196133,-3.6202882916666663
1403715890084058112,-0.02583087292951608,0.023736477827122883,0.085172067497323284,9.4143839999999983,-0.13892754166666665,-3.6529771249999996
1403715890089058048,0.0020943951023931952,0.029321531433504733,0.085870199198121014,8.9240514999999991,-0.18796079166666665,-3.4404997083333333
1403715890094057984,0.023736477827122883,0.024434609527920613,0.07749261878854824,9.2672842499999994,-0.17978858333333333,-3.5630828333333331
1403715890099057920,0.047472955654245766,0.014660765716752367,0.08307767239493008,8.9403959166666649,0.17161637500000002,-3.6039438749999997
1403715890104058112,0.050963614158234416,0.021642082724729686,0.08307767239493008,8.9485681249999995,0.77635979166666658,-3.6693215416666662
1403715890109058048,0.027925268031909273,0.013264502315156905,0.087964594300514204,9.0956678750000002,1.1114203333333332,-3.6856659583333333
1403715890114057984,-0.018849555921538759,0.017453292519943295,0.085870199198121014,9.1610455416666667,1.1931424166666666,-3.8409379166666664
1403715890119057920,-0.055152404363020817,0.016755160819145562,0.095644043009289262,9.0384624166666665,0.97249279166666658,-3.6448049166666663
1403715890124058112,-0.067718774977379978,0.016057029118347832,0.092851516206098328,9.0956678750000002,0.20430520833333332,-3.4486719166666666
1403715890129058048,-0.035604716740684328,0.01117010721276371,0.090058989402907408,9.0302902083333318,-0.63743225000000003,-3.4568441249999995
1403715890134057984,0.02583087292951608,0.0,0.074700091985357306,9.2591120416666666,-0.87442629166666663,-3.4895329583333332
1403715890139057920,0.075398223686155036,0.019547687622336492,0.062831853071795868,9.332661916666666,-0.22064962499999999,-3.7510436249999999
1403715890144058112,0.086568330898918744,0.029321531433504733,0.038397243543875248,9.1855621666666654,0.75184316666666662,-3.6448049166666663
1403715890149058048,0.05166174585903216,0.031415926535897934,0.060737457969402671,9.3408341249999989,1.7488525833333333,-3.92266
1403715890154057984,-0.022340214425527419,0.047472955654245766,0.059341194567807204,8.3683413333333334,2.1492907916666666,-3.5712550416666669
1403715890159057920,-0.094945911308491532,0.019547687622336492,0.076794487087750496,9.0548068333333322,1.3647587916666666,-3.6856659583333333
1403715890164058112,-0.12426744274199628,0.0055850536063818549,0.1054178868204575,8.6543686249999983,-0.04903325,-3.5222217916666665
1403715890169058048,-0.07958701389094143,0.0027925268031909274,0.096342174710086978,8.9077070833333334,-0.97249279166666658,-3.3015721666666664
1403715890174057984,0.0041887902047863905,-0.0069813170079773184,0.098436569812480182,9.5778281666666665,-1.3484143749999999,-3.5712550416666669
1403715890179057920,0.069813170079773182,0.045378560551852569,0.064926248174189058,9.3571785416666664,-0.6292600416666666,-3.6529771249999996
1403715890184058112,0.095644043009289262,0.021642082724729686,0.057944931166211737,9.0057735833333332,0.41678262500000002,-3.6039438749999997
1403715890189058048,0.078888882190143686,0.034208453339088861,0.058643062867009467,9.0548068333333322,1.1195925416666666,-3.5303939999999998
1403715890194057984,0.033510321638291124,0.037699111843077518,0.067718774977379978,9.0057735833333332,1.2340034583333332,-3.7673880416666665
1403715890199057920,-0.0069813170079773184,0.013962634015954637,0.08237954069413235,8.7524351249999999,1.2258312499999999,-3.7346992083333332
1403715890204058112,-0.043284165449459372,0.012566370614359173,0.099134701513277898,8.9812569583333328,1.2666922916666667,-3.5957716666666664
1403715890209058048,-0.08237954069413235,0.013264502315156905,0.093549647906896058,8.8995348749999987,0.69463770833333327,-3.6284604999999996
1403715890214057984,-0.07819075048934597,-0.00069813170079773186,0.087964594300514204,9.5124504999999999,-0.065377666666666667,-3.8981433750000001
1403715890219057920,-0.041189770347066175,0.020245819323134219,0.08237954069413235,9.3163174999999985,-0.43312704166666666,-3.4159830833333329
1403715890224058112,-0.00069813170079773186,0.041887902047863905,0.069813170079773182,9.2754564583333323,-0.5475379583333333,-3.5794272499999997
1403715890229058048,0.031415926535897934,0.014660765716752367,0.064228116473391328,8.9240514999999991,-0.196133,-3.4731885416666666
1403715890234057984,0.043982297150257102,0.037000980142279788,0.066322511575784518,8.9812569583333328,0.44129924999999998,-3.5058773749999999
1403715890239057920,0.048171087355043489,0.01117010721276371,0.08307767239493008,8.7115740833333319,0.51484912499999991,-3.5222217916666665
1403715890244058112,0.032114058236695664,0.011868238913561441,0.066322511575784518,9.3653507499999993,0.78453200000000001,-3.8164212916666664
1403715890249058048,0.0055850536063818549,-0.0034906585039886592,0.080983277292536876,8.9158792916666663,1.0460426666666667,-3.7183547916666662
1403715890254057984,-0.019547687622336492,0.016057029118347832,0.071209433481368656,8.9485681249999995,0.80904862499999997,-3.5303939999999998
1403715890259057920,-0.033510321638291124,-0.00069813170079773186,0.087964594300514204,9.3898673749999997,0.59657120833333332,-3.7428714166666661
1403715890264058112,-0.039793506945470715,0.013962634015954637,0.096342174710086978,8.9403959166666649,0.392266,-3.5794272499999997
1403715890269058048,-0.033510321638291124,0.0090757121103705145,0.094945911308491532,9.1692177499999996,0.081722083333333334,-3.5303939999999998
1403715890274057984,-0.01117010721276371,0.0041887902047863905,0.099832833214075656,8.793296166666666,0.0081722083333333334,-3.3179165833333331
1403715890279057920,0.0097738438111682462,0.011868238913561441,0.074001960284559576,9.3081452916666674,-0.098066500000000001,-3.7510436249999999
1403715890284058112,0.02583087292951608,0.0069813170079773184,0.060039326268604934,9.4062117916666654,-0.040861041666666667,-3.7101825833333333
1403715890289058048,0.040491638646268438,0.02652900463031381,0.060737457969402671,9.0302902083333318,0.50667691666666659,-3.6202882916666663
1403715890294057984,0.036302848441482058,0.032114058236695664,0.070511301780570912,9.0384624166666665,0.51484912499999991,-3.7346992083333332
1403715890299057920,0.019547687622336492,0.021642082724729686,0.074700091985357306,8.8913626666666659,0.87442629166666663,-3.6039438749999997
1403715890304058112,-0.0097738438111682462,0.012566370614359173,0.08377580409572781,8.9240514999999991,0.98066500000000001,-3.5222217916666665
1403715890309058048,-0.031415926535897934,0.019547687622336492,0.07749261878854824,9.1692177499999996,0.64560445833333324,-3.7265269999999999
1403715890314057984,-0.035604716740684328,0.0097738438111682462,0.08168140899333462,8.793296166666666,0.13892754166666665,-3.5549106249999998
1403715890319057920,-0.020943951023931952,0.0020943951023931952,0.057246799465414,9.3081452916666674,-0.065377666666666667,-3.6039438749999997
1403715890324058112,0.008377580409572781,0.016057029118347832,0.066322511575784518,9.1283567083333317,0.22882183333333334,-3.6938381666666662
1403715890329058048,0.014660765716752367,0.018151424220741029,0.067020643276582248,9.242767624999999,0.61291562499999996,-3.6284604999999996
1403715890334057984,-0.0076794487087750501,0.030019663134302467,0.07819075048934597,9.2264232083333333,0.9398039583333333,-3.7101825833333333
1403715890339057920,-0.047472955654245766,0.035604716740684328,0.092153384505300612,8.8259849999999993,1.1604535833333331,-3.6938381666666662
1403715890344058112,-0.069115038378975438,0.021642082724729686,0.10192722831646883,8.9485681249999995,0.47398808333333331,-3.3832942499999996
1403715890349058048,-0.046774823953448029,0.025132741228718346,0.11239920382843484,9.2264232083333333,-0.62108783333333339,-3.6284604999999996
1403715890354057984,0.0097738438111682462,0.031415926535897934,0.088662726001311934,8.9976013749999986,-0.94797616666666662,-3.4650163333333333
1403715890359057920,0.078888882190143686,-0.0062831853071795866,0.076794487087750496,9.0221180000000007,-0.98066500000000001,-3.3342610000000001
1403715890364058112,0.12566370614359174,0.039793506945470715,0.069813170079773182,9.3571785416666664,0.073549874999999987,-3.5140495833333332
1403715890369058048,0.098436569812480182,0.0090757121103705145,0.057246799465414,8.8178127916666664,1.9449855833333332,-3.8654545416666664
1403715890374057984,0.016755160819145562,0.014660765716752367,0.060737457969402671,9.3571785416666664,2.4843513333333336,-3.9635210416666666
1403715890379057920,-0.076794487087750496,0.016755160819145562,0.090058989402907408,8.3601691250000005,1.8469190833333331,-3.4731885416666666
1403715890384058112,-0.12356931104119852,0.0,0.10611601852125524,9.1692177499999996,0.43312704166666666,-3.6611493333333334
1403715890389058048,-0.092851516206098328,0.010471975511965976,0.10402162341886204,9.3163174999999985,-0.93163174999999998,-3.4895329583333332
1403715890394057984,-0.030019663134302467,0.0048869219055841231,0.072605696882964116,8.9730847499999999,-0.99700941666666665,-3.3587776250000001
1403715890399057920,0.035604716740684328,0.0069813170079773184,0.05166174585903216,9.4552450416666662,-0.76001537499999994,-3.6448049166666663
1403715890404058112,0.086568330898918744,0.034906585039886591,0.052359877559829883,9.3081452916666674,-0.22064962499999999,-3.5957716666666664
1403715890409058048,0.088662726001311934,0.012566370614359173,0.037699111843077518,8.7524351249999999,0.57205458333333326,-3.5712550416666669
1403715890414057984,0.071907565182166372,0.027925268031909273,0.055152404363020817,9.1038400833333331,1.1686257916666667,-3.67749375
1403715890419057920,0.033510321638291124,0.011868238913561441,0.091455252804502868,8.6870574583333333,1.3892754166666665,-3.7673880416666665
1403715890424058112,-0.020943951023931952,0.0013962634015954637,0.078888882190143686,8.9322237083333338,1.3811032083333332,-3.7346992083333332
1403715890429058048,-0.060039326268604934,-0.0027925268031909274,0.088662726001311934,9.1610455416666667,1.0215260416666667,-3.6121160833333334
1403715890434057984,-0.085870199198121014,0.008377580409572781,0.08307767239493008,9.2672842499999994,0.53119354166666666,-3.8409379166666664
1403715890439057920,-0.076794487087750496,0.00069813170079773186,0.087964594300514204,9.0384624166666665,-0.17978858333333333,-3.5957716666666664
1403715890444058112,-0.041887902047863905,0.023038346126325153,0.085870199198121014,9.422556208333333,-0.37592158333333331,-3.6366327083333334
1403715890449058048,-0.0055850536063818549,0.022340214425527419,0.08377580409572781,8.9322237083333338,-0.3105439166666667,-3.5957716666666664
1403715890454057984,0.037000980142279788,0.02583087292951608,0.090058989402907408,9.0384624166666665,-0.3105439166666667,-3.4568441249999995
1403715890459057920,0.064926248174189058,0.02722713633111154,0.085870199198121014,9.1855621666666654,-0.016344416666666667,-3.6284604999999996
1403715890464058112,0.061435589670200401,0.023038346126325153,0.048869219055841226,9.0466346249999994,0.55571016666666662,-3.6938381666666662
1403715890469058048,0.049567350756638949,0.013264502315156905,0.05305800926062762,9.0629790416666669,0.85808187499999988,-3.702010375
1403715890474057984,0.024434609527920613,0.025132741228718346,0.060737457969402671,9.2672842499999994,1.1767979999999998,-3.7183547916666662
1403715890479057920,-0.016057029118347832,0.030019663134302467,0.074001960284559576,8.9158792916666663,1.299381125,-3.7510436249999999
1403715890484058112,-0.057246799465414,0.025132741228718346,0.089360857702109678,9.0874956666666655,0.99700941666666665,-3.6448049166666663
1403715890489058048,-0.07819075048934597,0.020245819323134219,0.10471975511965977,8.793296166666666,0.40861041666666664,-3.5222217916666665
1403715890494057984,-0.063529984772593598,0.0090757121103705145,0.093549647906896058,8.9894291666666657,-0.22064962499999999,-3.3914664583333329
1403715890499057920,-0.02652900463031381,0.01117010721276371,0.074001960284559576,9.3816951666666668,-0.4903325,-3.6366327083333334
1403715890504058112,0.0153588974175501,0.017453292519943295,0.064926248174189058,9.1120122916666659,-0.45764366666666667,-3.7183547916666662
1403715890509058048,0.050265482457436693,0.018849555921538759,0.068416906678177722,8.9730847499999999,-0.15527195833333335,-3.5140495833333332
1403715890514057984,0.062133721370998138,0.024434609527920613,0.067718774977379978,9.4143839999999983,0.62108783333333339,-3.8654545416666664
1403715890519057920,0.030019663134302467,0.031415926535897934,0.07749261878854824,8.744262916666667,1.1849702083333333,-3.6039438749999997
1403715890524058112,-0.0041887902047863905,0.018849555921538759,0.084473935796525554,8.9730847499999999,1.1686257916666667,-3.6693215416666662
1403715890529058048,-0.02722713633111154,0.02583087292951608,0.08307767239493008,9.1283567083333317,0.32688833333333334,-3.4486719166666666
1403715890534057984,-0.019547687622336492,0.0034906585039886592,0.07609635538695278,8.8505016249999997,-0.16344416666666667,-3.4650163333333333
1403715890539057920,0.0055850536063818549,0.0076794487087750501,0.068416906678177722,9.4552450416666662,-0.10623870833333333,-3.7265269999999999
1403715890544058112,0.02722713633111154,0.0048869219055841231,0.067020643276582248,8.9567403333333324,0.58022679166666657,-3.5712550416666669
1403715890549058048,0.0097738438111682462,0.013264502315156905,0.073303828583761846,9.2999730833333327,1.2094868333333333,-3.881798958333333
1403715890554057984,-0.033510321638291124,0.023736477827122883,0.080285145591739146,9.2836286666666652,1.4301364583333334,-3.6938381666666662
1403715890559057920,-0.07609635538695278,0.016057029118347832,0.091455252804502868,8.8423294166666651,1.0623870833333333,-3.6121160833333334
1403715890564058112,-0.08168140899333462,0.02583087292951608,0.086568330898918744,9.193734375,0.024516625,-3.587599458333333
1403715890569058048,-0.039793506945470715,0.011868238913561441,0.08377580409572781,8.8668460416666655,-0.89894291666666659,-3.366949833333333
1403715890574057984,0.019547687622336492,0.0076794487087750501,0.075398223686155036,8.9158792916666663,-0.72732654166666666,-3.4078108749999996
1403715890579057920,0.059341194567807204,0.011868238913561441,0.05375614096142535,9.3735229583333322,-0.17978858333333333,-3.5794272499999997
1403715890584058112,0.071907565182166372,0.014660765716752367,0.058643062867009467,9.0466346249999994,0.71098212499999991,-3.7265269999999999
1403715890589058048,0.05166174585903216,0.024434609527920613,0.060039326268604934,8.8750182500000001,1.1195925416666666,-3.7101825833333333
1403715890594057984,0.0153588974175501,0.020943951023931952,0.05166174585903216,9.2672842499999994,1.4056198333333334,-3.8000768749999998
1403715890599057920,-0.041189770347066175,0.016057029118347832,0.08168140899333462,8.9649125416666671,1.1522813749999998,-3.7183547916666662
1403715890604058112,-0.057944931166211737,0.031415926535897934,0.08377580409572781,8.8995348749999987,0.45764366666666667,-3.5385662083333331
1403715890609058048,-0.052359877559829883,0.0034906585039886592,0.087964594300514204,8.9403959166666649,0.15527195833333335,-3.4568441249999995
1403715890614057984,-0.041189770347066175,0.0076794487087750501,0.069813170079773182,9.0302902083333318,0.065377666666666667,-3.6693215416666662
1403715890619057920,-0.013264502315156905,0.011868238913561441,0.069813170079773182,9.3980395833333326,-0.17978858333333333,-3.7837324583333327
1403715890624058112,0.014660765716752367,0.018849555921538759,0.064926248174189058,8.9812569583333328,-0.18796079166666665,-3.67749375
1403715890629058048,0.0307177948351002,0.034906585039886591,0.048869219055841226,9.1692177499999996,0.16344416666666667,-3.702010375
1403715890634057984,0.037000980142279788,0.035604716740684328,0.069813170079773182,9.1692177499999996,0.55571016666666662,-3.7265269999999999
1403715890639057920,0.029321531433504733,0.037000980142279788,0.086568330898918744,8.8096405833333318,0.6292600416666666,-3.6284604999999996
1403715890644058112,0.017453292519943295,0.034208453339088861,0.08168140899333462,8.7687795416666656,0.68646550000000006,-3.4731885416666666
1403715890649058048,-0.0069813170079773184,0.0090757121103705145,0.08377580409572781,8.8750182500000001,0.85808187499999988,-3.4813607499999994
1403715890654057984,-0.023736477827122883,0.0097738438111682462,0.08377580409572781,9.3244897083333331,0.5475379583333333,-3.7592158333333332
1403715890659057920,-0.02652900463031381,0.020943951023931952,0.08377580409572781,9.1447011249999992,0.34323275000000003,-3.6693215416666662
1403715890664058112,-0.023038346126325153,0.019547687622336492,0.076794487087750496,9.1610455416666667,0.3350605416666666,-3.587599458333333
1403715890669058048,-0.021642082724729686,0.032812189937493394,0.084473935796525554,9.4143839999999983,0.26151066666666667,-3.6039438749999997
1403715890674057984,-0.010471975511965976,0.036302848441482058,0.087964594300514204,9.0629790416666669,0.18796079166666665,-3.6693215416666662
1403715890679057920,0.010471975511965976,0.034906585039886591,0.080983277292536876,8.9077070833333334,0.024516625,-3.4813607499999994
1403715890684058112,0.022340214425527419,0.029321531433504733,0.067020643276582248,9.0711512499999998,0.17978858333333333,-3.5385662083333331
1403715890689058048,0.02722713633111154,0.01117010721276371,0.059341194567807204,9.0711512499999998,0.4494714583333333,-3.6693215416666662
1403715890694057984,0.027925268031909273,0.0097738438111682462,0.061435589670200401,9.0139457916666661,0.63743225000000003,-3.6693215416666662
1403715890699057920,0.0076794487087750501,0.014660765716752367,0.059341194567807204,9.0956678750000002,0.88259849999999995,-3.6938381666666662
1403715890704058112,-0.023038346126325153,0.0090757121103705145,0.070511301780570912,9.193734375,0.88259849999999995,-3.67749375
1403715890709058048,-0.037000980142279788,0.016755160819145562,0.080285145591739146,9.0302902083333318,0.76001537499999994,-3.702010375
1403715890714057984,-0.034208453339088861,0.02722713633111154,0.08237954069413235,9.2100787916666658,0.16344416666666667,-3.5058773749999999
1403715890719057920,-0.0153588974175501,0.019547687622336492,0.073303828583761846,9.0629790416666669,-0.24516625,-3.4731885416666666
1403715890724058112,0.010471975511965976,0.013264502315156905,0.057246799465414,9.1610455416666667,-0.024516625,-3.5957716666666664
1403715890729058048,0.025132741228718346,0.022340214425527419,0.068416906678177722,8.9649125416666671,0.36774937499999999,-3.5630828333333331
1403715890734057984,0.011868238913561441,0.01117010721276371,0.064926248174189058,9.0302902083333318,1.0378704583333334,-3.8245934999999998
1403715890739057920,-0.021642082724729686,0.018151424220741029,0.076794487087750496,8.9894291666666657,1.1441091666666665,-3.6693215416666662
1403715890744058112,-0.048171087355043489,0.020245819323134219,0.099832833214075656,9.1610455416666667,0.76001537499999994,-3.8736267500000001
1403715890749058048,-0.049567350756638949,0.035604716740684328,0.10611601852125524,8.8750182500000001,-0.17978858333333333,-3.2198500833333328
1403715890754057984,-0.0090757121103705145,-0.0020943951023931952,0.08377580409572781,9.2182509999999986,-1.0869037083333333,-3.4486719166666666
1403715890759057920,0.073303828583761846,0.039793506945470715,0.074001960284559576,9.3244897083333331,-0.58839899999999989,-3.6938381666666662
1403715890764058112,0.099832833214075656,0.0097738438111682462,0.065624379874986788,8.7034018749999991,0.53936574999999998,-3.2933999583333331
1403715890769058048,0.064228116473391328,0.020943951023931952,0.057944931166211737,9.4797616666666666,1.4301364583333334,-3.9962098749999995
1403715890774057984,0.0048869219055841231,0.020943951023931952,0.064926248174189058,8.6543686249999983,2.0593964999999996,-3.5549106249999998
1403715890779057920,-0.059341194567807204,-0.0041887902047863905,0.067718774977379978,9.242767624999999,1.5118585416666666,-3.8327657083333331
1403715890784058112,-0.084473935796525554,0.057246799465414,0.094945911308491532,9.3408341249999989,0.52302133333333334,-3.7510436249999999
1403715890789058048,-0.078888882190143686,0.0076794487087750501,0.068416906678177722,8.9976013749999986,-0.18796079166666665,-3.6039438749999997
1403715890794057984,-0.031415926535897934,0.035604716740684328,0.080983277292536876,9.0629790416666669,-0.53936574999999998,-3.4323274999999995
1403715890799057920,0.0055850536063818549,0.044680428851054839,0.070511301780570912,8.9403959166666649,-0.040861041666666667,-3.3260887916666664
