#timestamp [ns],w_RS_S_x [rad s^-1],w_RS_S_y [rad s^-1],w_RS_S_z [rad s^-1],a_RS_S_x [m s^-2],a_RS_S_y [m s^-2],a_RS_S_z [m s^-2]
1413393212225760512,0.094945911308491532,0.020245819323134219,0.058643062867009467,9.1283567083333317,0.10623870833333333,-2.6069344583333329
1413393212230760448,0.058643062867009467,0.035604716740684328,0.05166174585903216,9.422556208333333,1.1604535833333331,-2.623278875
1413393212235760384,-0.01117010721276371,0.027925268031909273,0.069813170079773182,9.3980395833333326,1.6180972499999999,-2.7050009583333332
1413393212240760576,-0.072605696882964116,0.033510321638291124,0.069813170079773182,9.4961060833333324,0.6701210833333332,-2.8194118749999997
1413393212245760512,-0.092153384505300612,0.036302848441482058,0.078888882190143686,8.9894291666666657,-0.13075533333333333,-2.7131731666666665
1413393212250760448,-0.058643062867009467,0.024434609527920613,0.10053096491487339,9.1773899583333325,-0.89077070833333327,-2.582417833333333
1413393212255760384,-0.0055850536063818549,0.0090757121103705145,0.11379546723003027,9.2999730833333327,-1.2340034583333332,-2.4761791249999998
1413393212260760576,0.037000980142279788,0.013264502315156905,0.10053096491487339,9.5860003749999994,-0.81722083333333329,-2.7458620000000002
1413393212265760512,0.061435589670200401,0.023736477827122883,0.091455252804502868,9.2754564583333323,0.073549874999999987,-2.582417833333333
1413393212270760448,0.044680428851054839,0.017453292519943295,0.076794487087750496,9.5369671250000003,0.49850470833333332,-2.6886565416666666
1413393212275760384,0.0097738438111682462,0.028623399732707,0.060039326268604934,9.471589458333332,0.40043820833333332,-2.6069344583333329
1413393212280760576,-0.018849555921538759,0.029321531433504733,0.071907565182166372,9.4961060833333324,0.22064962499999999,-2.9256505833333333
1413393212285760512,-0.032114058236695664,0.042586033748661642,0.086568330898918744,9.332661916666666,0.122583125,-2.7050009583333332
1413393212290760448,-0.043284165449459372,0.023038346126325153,0.084473935796525554,9.3980395833333326,-0.04903325,-2.8194118749999997
1413393212295760384,-0.0307177948351002,0.041887902047863905,0.094945911308491532,9.6595502499999988,-0.37592158333333331,-2.9174783749999995
1413393212300760576,-0.01117010721276371,0.041887902047863905,0.093549647906896058,9.1201845000000006,-0.43312704166666666,-2.4925235416666665
1413393212305760512,-0.00069813170079773186,0.024434609527920613,0.07749261878854824,9.2918008749999998,-0.4903325,-2.5987622500000001
1413393212310760448,0.020943951023931952,0.014660765716752367,0.071209433481368656,9.242767624999999,-0.40043820833333332,-2.5252123749999997
1413393212315760384,0.032812189937493394,0.008377580409572781,0.075398223686155036,9.4470728333333334,-0.098066500000000001,-2.6559677083333328
1413393212320760576,0.02652900463031381,0.0013962634015954637,0.089360857702109678,9.4961060833333324,0.26968287499999999,-2.6968287499999999
1413393212325760512,0.0062831853071795866,0.01117010721276371,0.097738438111682452,9.4470728333333334,0.44129924999999998,-2.7376897916666665
1413393212330760448,-0.011868238913561441,0.027925268031909273,0.10122909661567112,9.7085834999999996,0.25333845833333329,-2.8439284999999996
1413393212335760384,-0.028623399732707,0.037000980142279788,0.091455252804502868,9.7576167499999986,0.0,-2.8684451249999996
1413393212340760576,-0.028623399732707,0.041887902047863905,0.07749261878854824,9.5860003749999994,-0.17161637500000002,-2.7540342083333331
1413393212345760512,-0.018151424220741029,0.048171087355043489,0.070511301780570912,9.3244897083333331,-0.48216029166666663,-2.5006957499999998
1413393212350760448,0.0055850536063818549,0.02583087292951608,0.076794487087750496,9.0793234583333327,-0.51484912499999991,-2.3699404166666667
1413393212355760384,0.020943951023931952,0.016755160819145562,0.087964594300514204,9.2019065833333329,-0.17978858333333333,-2.5742456250000001
1413393212360760576,0.022340214425527419,0.008377580409572781,0.090757121103705138,9.2836286666666652,0.057205458333333334,-2.6151066666666667
1413393212365760512,0.0090757121103705145,0.0055850536063818549,0.08307767239493008,9.4879338749999995,0.13892754166666665,-2.7867230416666664
1413393212370760448,-0.0034906585039886592,0.025132741228718346,0.076794487087750496,9.8066499999999994,0.196133,-2.9665116249999999
1413393212375760384,-0.016057029118347832,0.041887902047863905,0.067020643276582248,9.5451393333333332,0.032688833333333334,-2.8357562916666668
1413393212380760576,-0.024434609527920613,0.029321531433504733,0.070511301780570912,9.3653507499999993,-0.16344416666666667,-2.6723121249999999
1413393212385760512,-0.012566370614359173,0.050963614158234416,0.075398223686155036,9.4552450416666662,-0.3105439166666667,-2.6804843333333328
1413393212390760448,0.0076794487087750501,0.032812189937493394,0.087964594300514204,8.8505016249999997,-0.196133,-2.4026292499999999
1413393212395760384,0.0013962634015954637,0.00069813170079773186,0.099832833214075656,9.2509398333333337,0.13892754166666665,-2.5497290000000001
1413393212400760576,-0.008377580409572781,0.016755160819145562,0.090757121103705138,9.7576167499999986,-0.040861041666666667,-2.7785508333333331
1413393212405760512,-0.01117010721276371,0.028623399732707,0.084473935796525554,9.6268614166666655,-0.25333845833333329,-2.9583394166666666
1413393212410760448,-0.0069813170079773184,0.016755160819145562,0.078888882190143686,9.2100787916666658,-0.22882183333333334,-2.6559677083333328
1413393212415760384,0.0013962634015954637,0.022340214425527419,0.076794487087750496,9.8066499999999994,-0.34323275000000003,-2.8847895416666667
1413393212420760576,0.018151424220741029,0.050265482457436693,0.08237954069413235,9.2836286666666652,-0.14709974999999997,-2.5742456250000001
1413393212425760512,0.023736477827122883,0.025132741228718346,0.099832833214075656,9.0139457916666661,0.10623870833333333,-2.557901208333333
1413393212430760448,0.0055850536063818549,0.0034906585039886592,0.095644043009289262,9.4552450416666662,0.32688833333333334,-2.7622064166666664
1413393212435760384,-0.016057029118347832,0.014660765716752367,0.090058989402907408,9.4879338749999995,0.26151066666666667,-2.6968287499999999
1413393212440760576,-0.033510321638291124,0.018151424220741029,0.088662726001311934,9.471589458333332,-0.13075533333333333,-2.7295175833333332
1413393212445760512,-0.030019663134302467,0.022340214425527419,0.072605696882964116,9.422556208333333,-0.56388237500000005,-2.7295175833333332
1413393212450760448,-0.0055850536063818549,0.02583087292951608,0.074001960284559576,9.4961060833333324,-0.4903325,-2.6886565416666666
1413393212455760384,0.02583087292951608,0.02722713633111154,0.085172067497323284,9.5533115416666661,-0.23699404166666665,-2.7050009583333332
1413393212460760576,0.032114058236695664,0.038397243543875248,0.088662726001311934,9.3980395833333326,-0.089894291666666667,-2.6069344583333329
1413393212465760512,0.024434609527920613,0.032114058236695664,0.080285145591739146,9.332661916666666,0.26968287499999999,-2.6804843333333328
1413393212470760448,0.0034906585039886592,0.028623399732707,0.086568330898918744,9.2264232083333333,0.46581587499999999,-2.5252123749999997
1413393212475760384,-0.019547687622336492,0.0090757121103705145,0.089360857702109678,9.3980395833333326,0.13075533333333333,-2.6723121249999999
1413393212480760576,-0.034906585039886591,0.011868238913561441,0.08237954069413235,9.6105169999999998,-0.18796079166666665,-2.8112396666666668
1413393212485760512,-0.024434609527920613,0.023736477827122883,0.08307767239493008,9.4307284166666658,-0.26151066666666667,-2.6968287499999999
1413393212490760448,-0.010471975511965976,0.018151424220741029,0.085172067497323284,9.422556208333333,-0.17978858333333333,-2.827584083333333
1413393212495760384,0.0027925268031909274,0.025132741228718346,0.08307767239493008,9.5042782916666653,-0.25333845833333329,-2.6314510833333329
1413393212500760576,0.018849555921538759,0.025132741228718346,0.074700091985357306,9.6677224583333334,-0.25333845833333329,-2.7458620000000002
1413393212505760512,0.013962634015954637,0.031415926535897934,0.067718774977379978,9.2918008749999998,-0.04903325,-2.6641399166666666
1413393212510760448,0.011868238913561441,0.018849555921538759,0.073303828583761846,9.0221180000000007,-0.098066500000000001,-2.5333845833333335
1413393212515760384,0.01117010721276371,0.0020943951023931952,0.093549647906896058,9.2591120416666666,-0.04903325,-2.623278875
1413393212520760576,-0.0027925268031909274,0.0153588974175501,0.086568330898918744,9.6677224583333334,0.21247741666666667,-2.6723121249999999
1413393212525760512,-0.014660765716752367,0.033510321638291124,0.10053096491487339,9.4961060833333324,0.37592158333333331,-2.7458620000000002
1413393212530760448,-0.027925268031909273,0.020943951023931952,0.092851516206098328,9.3408341249999989,-0.032688833333333334,-2.6968287499999999
1413393212535760384,-0.023736477827122883,0.0307177948351002,0.080983277292536876,9.5042782916666653,-0.47398808333333331,-2.7213453750000003
1413393212540760576,-0.0069813170079773184,0.033510321638291124,0.068416906678177722,9.3408341249999989,-0.43312704166666666,-2.6477955
1413393212545760512,0.014660765716752367,0.032114058236695664,0.073303828583761846,9.3735229583333322,-0.48216029166666663,-2.6396232916666666
1413393212550760448,0.02722713633111154,0.02583087292951608,0.08307767239493008,9.2264232083333333,-0.25333845833333329,-2.582417833333333
1413393212555760384,0.027925268031909273,0.013962634015954637,0.10122909661567112,9.2836286666666652,0.23699404166666665,-2.6069344583333329
1413393212560760576,0.0041887902047863905,0.013264502315156905,0.099832833214075656,9.5533115416666661,0.65377666666666667,-2.7948952499999997
1413393212565760512,-0.02722713633111154,0.029321531433504733,0.087266462599716474,9.5533115416666661,0.40043820833333332,-2.7540342083333331
1413393212570760448,-0.039793506945470715,0.037699111843077518,0.074001960284559576,9.422556208333333,-0.16344416666666667,-2.7622064166666664
1413393212575760384,-0.023736477827122883,0.027925268031909273,0.071907565182166372,9.4961060833333324,-0.51484912499999991,-2.6723121249999999
1413393212580760576,-0.0020943951023931952,0.039095375244672985,0.071209433481368656,9.5696559583333336,-0.53936574999999998,-2.7050009583333332
1413393212585760512,0.020943951023931952,0.032812189937493394,0.08307767239493008,9.1201845000000006,-0.35957716666666667,-2.4761791249999998
1413393212590760448,0.030019663134302467,0.016057029118347832,0.090757121103705138,9.4879338749999995,0.024516625,-2.7050009583333332
1413393212595760384,0.022340214425527419,0.025132741228718346,0.099134701513277898,9.471589458333332,0.37592158333333331,-2.582417833333333
1413393212600760576,-0.010471975511965976,0.012566370614359173,0.088662726001311934,9.4062117916666654,0.50667691666666659,-2.7213453750000003
1413393212605760512,-0.031415926535897934,0.018849555921538759,0.074001960284559576,9.6350336250000002,-0.057205458333333334,-2.7540342083333331
1413393212610760448,-0.02722713633111154,0.02583087292951608,0.068416906678177722,9.5778281666666665,-0.40043820833333332,-2.7458620000000002
1413393212615760384,-0.0041887902047863905,0.021642082724729686,0.071907565182166372,9.3571785416666664,-0.60474341666666664,-2.5252123749999997
1413393212620760576,0.016057029118347832,0.020943951023931952,0.07609635538695278,9.3244897083333331,-0.29419949999999995,-2.4761791249999998
1413393212625760512,0.025132741228718346,0.028623399732707,0.087964594300514204,9.2509398333333337,0.016344416666666667,-2.5987622500000001
1413393212630760448,0.016057029118347832,0.020943951023931952,0.096342174710086978,9.4389006250000005,0.3105439166666667,-2.6804843333333328
1413393212635760384,-0.0069813170079773184,0.023038346126325153,0.091455252804502868,9.5614837499999989,0.38409379166666668,-2.7785508333333331
1413393212640760576,-0.030019663134302467,0.02652900463031381,0.075398223686155036,9.2591120416666666,0.18796079166666665,-2.7540342083333331
1413393212645760512,-0.030019663134302467,0.020245819323134219,0.07749261878854824,9.1610455416666667,-0.22064962499999999,-2.6641399166666666
1413393212650760448,-0.017453292519943295,0.018849555921538759,0.07958701389094143,9.5124504999999999,-0.69463770833333327,-2.6396232916666666
1413393212655760384,0.011868238913561441,0.021642082724729686,0.086568330898918744,9.4389006250000005,-0.56388237500000005,-2.6886565416666666
1413393212660760576,0.02652900463031381,0.030019663134302467,0.087964594300514204,9.3081452916666674,-0.073549874999999987,-2.7458620000000002
1413393212665760512,0.024434609527920613,0.029321531433504733,0.097040306410884708,9.3244897083333331,0.20430520833333332,-2.7376897916666665
1413393212670760448,0.0013962634015954637,0.028623399732707,0.08377580409572781,9.5287949166666657,0.30237170833333332,-2.827584083333333
1413393212675760384,-0.016755160819145562,0.0307177948351002,0.074001960284559576,9.4552450416666662,0.29419949999999995,-2.7622064166666664
1413393212680760576,-0.0307177948351002,0.031415926535897934,0.074001960284559576,9.3653507499999993,-0.032688833333333334,-2.7867230416666664
1413393212685760512,-0.02722713633111154,0.020943951023931952,0.086568330898918744,9.0711512499999998,-0.3350605416666666,-2.582417833333333
1413393212690760448,-0.0097738438111682462,0.016057029118347832,0.090058989402907408,9.4062117916666654,-0.64560445833333324,-2.623278875
1413393212695760384,0.013962634015954637,0.019547687622336492,0.088662726001311934,9.4961060833333324,-0.36774937499999999,-2.7376897916666665
1413393212700760576,0.02652900463031381,0.024434609527920613,0.088662726001311934,9.471589458333332,-0.098066500000000001,-2.7622064166666664
1413393212705760512,0.021642082724729686,0.023736477827122883,0.085172067497323284,9.3735229583333322,0.23699404166666665,-2.803067458333333
1413393212710760448,0.0013962634015954637,0.027925268031909273,0.073303828583761846,9.5287949166666657,0.22882183333333334,-2.8194118749999997
1413393212715760384,-0.016755160819145562,0.035604716740684328,0.074700091985357306,9.3571785416666664,0.27785508333333331,-2.6559677083333328
1413393212720760576,-0.020943951023931952,0.0307177948351002,0.085172067497323284,9.2836286666666652,-0.10623870833333333,-2.6151066666666667
1413393212725760512,-0.017453292519943295,0.023736477827122883,0.091455252804502868,9.3244897083333331,-0.3105439166666667,-2.557901208333333
1413393212730760448,-0.0041887902047863905,0.018849555921538759,0.090058989402907408,9.3490063333333335,-0.3350605416666666,-2.5333845833333335
1413393212735760384,0.0076794487087750501,0.018151424220741029,0.090058989402907408,9.4307284166666658,-0.14709974999999997,-2.6069344583333329
1413393212740760576,0.0076794487087750501,0.014660765716752367,0.07819075048934597,9.4797616666666666,-0.057205458333333334,-2.6559677083333328
1413393212745760512,0.0062831853071795866,0.018849555921538759,0.069813170079773182,9.643205833333333,0.081722083333333334,-2.8112396666666668
1413393212750760448,0.00069813170079773186,0.028623399732707,0.067718774977379978,9.4961060833333324,0.13892754166666665,-2.7213453750000003
1413393212755760384,-0.0069813170079773184,0.043284165449459372,0.074001960284559576,9.5369671250000003,-0.081722083333333334,-2.6723121249999999
1413393212760760576,-0.0062831853071795866,0.031415926535897934,0.085870199198121014,9.242767624999999,-0.24516625,-2.5006957499999998
1413393212765760512,-0.0013962634015954637,0.021642082724729686,0.088662726001311934,9.4062117916666654,-0.089894291666666667,-2.6069344583333329
1413393212770760448,-0.0048869219055841231,0.016755160819145562,0.095644043009289262,9.4552450416666662,0.10623870833333333,-2.7050009583333332
1413393212775760384,-0.010471975511965976,0.019547687622336492,0.087266462599716474,9.4389006250000005,-0.20430520833333332,-2.6641399166666666
1413393212780760576,-0.0090757121103705145,0.016755160819145562,0.080983277292536876,9.5451393333333332,-0.26968287499999999,-2.8439284999999996
1413393212785760512,-0.0062831853071795866,0.02722713633111154,0.073303828583761846,9.6186892083333326,-0.122583125,-2.852100708333333
1413393212790760448,0.0013962634015954637,0.029321531433504733,0.08307767239493008,9.422556208333333,-0.20430520833333332,-2.7867230416666664
1413393212795760384,0.0090757121103705145,0.033510321638291124,0.08237954069413235,9.2591120416666666,-0.28602729166666663,-2.5333845833333335
1413393212800760576,0.013962634015954637,0.017453292519943295,0.087266462599716474,9.3490063333333335,-0.073549874999999987,-2.5742456250000001
1413393212805760512,0.011868238913561441,0.020943951023931952,0.094247779607693802,9.4389006250000005,0.28602729166666663,-2.6886565416666666
1413393212810760448,-0.0020943951023931952,0.0153588974175501,0.097040306410884708,9.2999730833333327,0.21247741666666667,-2.6151066666666667
1413393212815760384,-0.018849555921538759,0.020245819323134219,0.08168140899333462,9.3408341249999989,-0.098066500000000001,-2.7131731666666665
1413393212820760576,-0.018849555921538759,0.013962634015954637,0.08307767239493008,9.6268614166666655,-0.196133,-2.9419949999999999
1413393212825760512,-0.0097738438111682462,0.031415926535897934,0.080983277292536876,9.5778281666666665,-0.17978858333333333,-2.7622064166666664
1413393212830760448,-0.0027925268031909274,0.032812189937493394,0.085172067497323284,9.5124504999999999,-0.392266,-2.6886565416666666
1413393212835760384,0.011868238913561441,0.042586033748661642,0.07749261878854824,9.4143839999999983,-0.24516625,-2.6804843333333328
1413393212840760576,0.017453292519943295,0.032114058236695664,0.080983277292536876,9.332661916666666,0.016344416666666667,-2.5497290000000001
1413393212845760512,0.012566370614359173,0.027925268031909273,0.087964594300514204,9.4797616666666666,0.28602729166666663,-2.7050009583333332
1413393212850760448,-0.0041887902047863905,0.013264502315156905,0.08168140899333462,9.1610455416666667,0.17161637500000002,-2.5415567916666664
1413393212855760384,-0.017453292519943295,0.016755160819145562,0.07609635538695278,9.5124504999999999,0.057205458333333334,-2.8766173333333334
1413393212860760576,-0.023736477827122883,0.020245819323134219,0.080285145591739146,9.332661916666666,-0.122583125,-2.6641399166666666
1413393212865760512,-0.013264502315156905,0.023038346126325153,0.08307767239493008,9.5451393333333332,-0.3105439166666667,-2.6886565416666666
1413393212870760448,-0.0020943951023931952,0.0307177948351002,0.084473935796525554,9.5206227083333328,-0.38409379166666668,-2.6559677083333328
1413393212875760384,0.0097738438111682462,0.028623399732707,0.07958701389094143,9.6105169999999998,-0.22064962499999999,-2.6886565416666666
1413393212880760576,0.017453292519943295,0.032812189937493394,0.08377580409572781,9.2999730833333327,0.057205458333333334,-2.5905900416666663
1413393212885760512,0.0090757121103705145,0.029321531433504733,0.07819075048934597,9.2100787916666658,0.20430520833333332,-2.623278875
1413393212890760448,-0.0069813170079773184,0.0069813170079773184,0.07819075048934597,9.1365289166666663,0.081722083333333334,-2.4598347083333332
1413393212895760384,-0.016755160819145562,0.0153588974175501,0.080285145591739146,9.7494445416666657,0.0081722083333333334,-2.8929617499999996
1413393212900760576,-0.016755160819145562,0.032812189937493394,0.088662726001311934,9.3244897083333331,-0.18796079166666665,-2.5497290000000001
1413393212905760512,-0.016057029118347832,0.0153588974175501,0.088662726001311934,9.2754564583333323,-0.38409379166666668,-2.7867230416666664
1413393212910760448,-0.0013962634015954637,0.020943951023931952,0.07749261878854824,9.5860003749999994,-0.36774937499999999,-2.6477955
1413393212915760384,0.014660765716752367,0.031415926535897934,0.076794487087750496,9.7657889583333333,-0.16344416666666667,-2.7785508333333331
1413393212920760576,0.016057029118347832,0.043982297150257102,0.07819075048934597,9.3571785416666664,0.24516625,-2.6069344583333329
1413393212925760512,0.0,0.02583087292951608,0.075398223686155036,9.1610455416666667,0.13892754166666665,-2.623278875
1413393212930760448,-0.0055850536063818549,0.018151424220741029,0.087964594300514204,9.2509398333333337,-0.122583125,-2.5333845833333335
1413393212935760384,-0.010471975511965976,0.0062831853071795866,0.090757121103705138,9.5778281666666665,-0.073549874999999987,-2.7785508333333331
1413393212940760576,-0.0055850536063818549,0.023736477827122883,0.099832833214075656,9.3980395833333326,-0.13075533333333333,-2.7295175833333332
1413393212945760512,-0.0076794487087750501,0.018151424220741029,0.084473935796525554,9.1610455416666667,-0.29419949999999995,-2.623278875
1413393212950760448,0.0076794487087750501,0.018151424220741029,0.090058989402907408,9.5533115416666661,-0.29419949999999995,-2.7213453750000003
1413393212955760384,0.013264502315156905,0.027925268031909273,0.080983277292536876,9.8393388333333327,0.122583125,-2.9419949999999999
1413393212960760576,0.0041887902047863905,0.041189770347066175,0.07819075048934597,9.4062117916666654,0.32688833333333334,-2.7948952499999997
1413393212965760512,-0.011868238913561441,0.035604716740684328,0.064926248174189058,9.2100787916666658,0.0,-2.7295175833333332
1413393212970760448,-0.008377580409572781,0.027925268031909273,0.07609635538695278,9.1855621666666654,-0.16344416666666667,-2.4761791249999998
1413393212975760384,-0.0069813170079773184,0.011868238913561441,0.088662726001311934,9.3653507499999993,-0.11441091666666667,-2.6804843333333328
1413393212980760576,-0.0097738438111682462,0.019547687622336492,0.089360857702109678,9.422556208333333,-0.032688833333333334,-2.5987622500000001
1413393212985760512,-0.008377580409572781,0.013264502315156905,0.088662726001311934,9.3816951666666668,-0.29419949999999995,-2.6804843333333328
1413393212990760448,0.0062831853071795866,0.020245819323134219,0.085870199198121014,9.5287949166666657,-0.29419949999999995,-2.6559677083333328
1413393212995760384,0.0055850536063818549,0.029321531433504733,0.074700091985357306,9.7167557083333325,0.04903325,-2.8439284999999996
1413393213000760576,0.0,0.032114058236695664,0.067020643276582248,9.3163174999999985,0.34323275000000003,-2.7703786249999998
1413393213005760512,-0.013264502315156905,0.032812189937493394,0.069813170079773182,9.2999730833333327,-0.024516625,-2.7540342083333331
1413393213010760448,-0.008377580409572781,0.032812189937493394,0.07958701389094143,9.2019065833333329,-0.22882183333333334,-2.4598347083333332
1413393213015760384,0.00069813170079773186,0.022340214425527419,0.090757121103705138,9.3408341249999989,-0.196133,-2.5742456250000001
1413393213020760576,-0.0013962634015954637,0.013962634015954637,0.095644043009289262,9.3163174999999985,-0.081722083333333334,-2.6559677083333328
1413393213025760512,-0.00069813170079773186,0.013962634015954637,0.099134701513277898,9.4389006250000005,-0.3350605416666666,-2.6641399166666666
1413393213030760448,0.0048869219055841231,0.017453292519943295,0.090757121103705138,9.6023447916666651,-0.17161637500000002,-2.6641399166666666
1413393213035760384,0.0055850536063818549,0.024434609527920613,0.075398223686155036,9.5778281666666665,0.196133,-2.7948952499999997
1413393213040760576,-0.0069813170079773184,0.027925268031909273,0.071209433481368656,9.4552450416666662,0.22882183333333334,-2.7376897916666665
1413393213045760512,-0.01117010721276371,0.031415926535897934,0.071209433481368656,9.5860003749999994,-0.11441091666666667,-2.7540342083333331
1413393213050760448,0.00069813170079773186,0.044680428851054839,0.084473935796525554,9.3081452916666674,-0.24516625,-2.4680069166666665
1413393213055760384,0.0013962634015954637,0.02722713633111154,0.090757121103705138,9.0221180000000007,-0.17978858333333333,-2.5006957499999998
1413393213060760576,0.0048869219055841231,0.0097738438111682462,0.094247779607693802,9.193734375,-0.17161637500000002,-2.6069344583333329
1413393213065760512,0.0076794487087750501,0.016057029118347832,0.097738438111682452,9.5614837499999989,-0.13075533333333333,-2.623278875
1413393213070760448,0.0062831853071795866,0.016755160819145562,0.086568330898918744,9.6922390833333321,0.04903325,-2.7295175833333332
1413393213075760384,-0.0041887902047863905,0.019547687622336492,0.07749261878854824,9.5696559583333336,0.13892754166666665,-2.8112396666666668
1413393213080760576,-0.012566370614359173,0.02722713633111154,0.072605696882964116,9.3571785416666664,0.040861041666666667,-2.7295175833333332
1413393213085760512,-0.0097738438111682462,0.032812189937493394,0.074700091985357306,9.4797616666666666,-0.098066500000000001,-2.6968287499999999
1413393213090760448,-0.00069813170079773186,0.037699111843077518,0.075398223686155036,9.4062117916666654,-0.22064962499999999,-2.6477955
1413393213095760384,0.0027925268031909274,0.032114058236695664,0.085870199198121014,9.1283567083333317,-0.17161637500000002,-2.5415567916666664
1413393213100760576,0.0097738438111682462,0.0097738438111682462,0.090058989402907408,9.0793234583333327,-0.14709974999999997,-2.4108014583333333
1413393213105760512,0.0097738438111682462,0.0090757121103705145,0.10192722831646883,9.6023447916666651,0.0081722083333333334,-2.6804843333333328
1413393213110760448,-0.0069813170079773184,0.0153588974175501,0.087266462599716474,9.6023447916666651,0.14709974999999997,-2.7540342083333331
1413393213115760384,-0.013962634015954637,0.013962634015954637,0.080285145591739146,9.5042782916666653,0.081722083333333334,-2.8194118749999997
1413393213120760576,-0.018151424220741029,0.023736477827122883,0.074700091985357306,9.5451393333333332,-0.040861041666666667,-2.8194118749999997
1413393213125760512,-0.010471975511965976,0.033510321638291124,0.073303828583761846,9.5696559583333336,-0.22882183333333334,-2.803067458333333
1413393213130760448,-0.0062831853071795866,0.042586033748661642,0.071209433481368656,9.4797616666666666,-0.26151066666666667,-2.6804843333333328
1413393213135760384,0.0076794487087750501,0.041189770347066175,0.07819075048934597,9.242767624999999,-0.36774937499999999,-2.5252123749999997
1413393213140760576,0.012566370614359173,0.027925268031909273,0.089360857702109678,9.0221180000000007,-0.10623870833333333,-2.3290793749999996
1413393213145760512,0.014660765716752367,0.00069813170079773186,0.097040306410884708,9.4879338749999995,0.065377666666666667,-2.7050009583333332
1413393213150760448,0.0027925268031909274,0.018151424220741029,0.086568330898918744,9.6268614166666655,0.23699404166666665,-2.7622064166666664
1413393213155760384,-0.016755160819145562,0.016057029118347832,0.078888882190143686,9.5206227083333328,0.073549874999999987,-2.7458620000000002
1413393213160760576,-0.018151424220741029,0.027925268031909273,0.084473935796525554,9.4552450416666662,-0.10623870833333333,-2.7376897916666665
1413393213165760512,-0.014660765716752367,0.02722713633111154,0.087266462599716474,9.4879338749999995,-0.22882183333333334,-2.7622064166666664
1413393213170760448,-0.008377580409572781,0.031415926535897934,0.07958701389094143,9.6595502499999988,-0.26151066666666667,-2.7131731666666665
1413393213175760384,0.01117010721276371,0.039793506945470715,0.085172067497323284,9.3816951666666668,-0.35140495833333335,-2.6641399166666666
1413393213180760576,0.022340214425527419,0.034906585039886591,0.089360857702109678,8.9158792916666663,-0.15527195833333335,-2.4843513333333336
1413393213185760512,0.018849555921538759,0.010471975511965976,0.099134701513277898,9.0874956666666655,0.18796079166666665,-2.5088679583333335
1413393213190760448,-0.00069813170079773186,0.01117010721276371,0.090058989402907408,9.7249279166666671,0.30237170833333332,-2.827584083333333
1413393213195760384,-0.013962634015954637,0.023038346126325153,0.089360857702109678,9.5287949166666657,0.11441091666666667,-2.7458620000000002
1413393213200760576,-0.020245819323134219,0.027925268031909273,0.07819075048934597,9.3571785416666664,-0.16344416666666667,-2.6477955
1413393213205760512,-0.019547687622336492,0.020943951023931952,0.074001960284559576,9.5206227083333328,-0.18796079166666665,-2.7622064166666664
1413393213210760448,-0.010471975511965976,0.029321531433504733,0.073303828583761846,9.6595502499999988,-0.29419949999999995,-2.7295175833333332
1413393213215760384,0.0062831853071795866,0.043982297150257102,0.08168140899333462,9.3571785416666664,-0.35957716666666667,-2.6559677083333328
1413393213220760576,0.018151424220741029,0.0307177948351002,0.084473935796525554,8.9403959166666649,-0.15527195833333335,-2.5088679583333335
1413393213225760512,0.016057029118347832,0.0097738438111682462,0.092851516206098328,9.0711512499999998,0.20430520833333332,-2.5170401666666664
1413393213230760448,0.0048869219055841231,0.008377580409572781,0.089360857702109678,9.7657889583333333,0.29419949999999995,-2.827584083333333
1413393213235760384,-0.01117010721276371,0.025132741228718346,0.088662726001311934,9.6677224583333334,0.024516625,-2.8112396666666668
1413393213240760576,-0.018849555921538759,0.02652900463031381,0.080285145591739146,9.242767624999999,-0.15527195833333335,-2.6314510833333329
1413393213245760512,-0.017453292519943295,0.020245819323134219,0.07749261878854824,9.4552450416666662,-0.073549874999999987,-2.8112396666666668
1413393213250760448,-0.01117010721276371,0.028623399732707,0.07609635538695278,9.7412723333333329,-0.3105439166666667,-2.6968287499999999
1413393213255760384,0.0027925268031909274,0.032812189937493394,0.073303828583761846,9.5614837499999989,-0.31871612500000002,-2.7131731666666665
1413393213260760576,0.016057029118347832,0.046076692252650306,0.07819075048934597,9.0548068333333322,-0.20430520833333332,-2.4516624999999999
1413393213265760512,0.013264502315156905,0.018849555921538759,0.086568330898918744,8.8995348749999987,0.196133,-2.4271458749999999
1413393213270760448,0.0034906585039886592,0.0062831853071795866,0.094247779607693802,9.6350336250000002,0.14709974999999997,-2.7458620000000002
1413393213275760384,-0.010471975511965976,0.021642082724729686,0.08377580409572781,9.8393388333333327,0.0081722083333333334,-2.9093061666666666
1413393213280760576,-0.016057029118347832,0.0307177948351002,0.080285145591739146,9.2918008749999998,-0.122583125,-2.5987622500000001
1413393213285760512,-0.016057029118347832,0.016755160819145562,0.080983277292536876,9.1283567083333317,-0.17161637500000002,-2.6151066666666667
1413393213290760448,-0.0041887902047863905,0.016057029118347832,0.084473935796525554,9.5287949166666657,-0.25333845833333329,-2.6968287499999999
1413393213295760384,0.0048869219055841231,0.022340214425527419,0.080983277292536876,9.6513780416666659,-0.32688833333333334,-2.7376897916666665
1413393213300760576,0.013264502315156905,0.049567350756638949,0.078888882190143686,9.4797616666666666,-0.13892754166666665,-2.5742456250000001
1413393213305760512,0.011868238913561441,0.023038346126325153,0.088662726001311934,8.8259849999999993,0.18796079166666665,-2.5415567916666664
1413393213310760448,0.0020943951023931952,0.0076794487087750501,0.10192722831646883,9.4552450416666662,0.16344416666666667,-2.6804843333333328
1413393213315760384,-0.010471975511965976,0.016755160819145562,0.090058989402907408,9.7821333750000008,0.0081722083333333334,-2.8194118749999997
1413393213320760576,-0.016057029118347832,0.034906585039886591,0.08377580409572781,9.3816951666666668,-0.122583125,-2.7622064166666664
1413393213325760512,-0.0097738438111682462,0.017453292519943295,0.089360857702109678,9.2918008749999998,-0.22064962499999999,-2.6151066666666667
1413393213330760448,-0.0027925268031909274,0.023038346126325153,0.080285145591739146,9.5287949166666657,-0.26151066666666667,-2.7295175833333332
1413393213335760384,0.0062831853071795866,0.022340214425527419,0.073303828583761846,9.5042782916666653,-0.15527195833333335,-2.6069344583333329
1413393213340760576,0.010471975511965976,0.037699111843077518,0.070511301780570912,9.7004112916666649,-0.122583125,-2.8439284999999996
1413393213345760512,0.01117010721276371,0.037699111843077518,0.076794487087750496,9.0793234583333327,0.13075533333333333,-2.5742456250000001
1413393213350760448,0.0027925268031909274,0.017453292519943295,0.084473935796525554,8.9485681249999995,0.27785508333333331,-2.5415567916666664
1413393213355760384,-0.0090757121103705145,0.012566370614359173,0.087964594300514204,9.5287949166666657,0.089894291666666667,-2.7376897916666665
1413393213360760576,-0.019547687622336492,0.02652900463031381,0.085172067497323284,9.6758946666666663,-0.17978858333333333,-2.8112396666666668
1413393213365760512,-0.010471975511965976,0.020943951023931952,0.085870199198121014,9.2345954166666662,-0.38409379166666668,-2.6396232916666666
1413393213370760448,-0.0041887902047863905,0.017453292519943295,0.078888882190143686,9.3490063333333335,-0.20430520833333332,-2.6723121249999999
1413393213375760384,0.0090757121103705145,0.022340214425527419,0.080285145591739146,9.5124504999999999,-0.098066500000000001,-2.6396232916666666
1413393213380760576,0.008377580409572781,0.02652900463031381,0.07958701389094143,9.8393388333333327,-0.04903325,-2.8847895416666667
1413393213385760512,0.0041887902047863905,0.042586033748661642,0.07609635538695278,9.471589458333332,0.040861041666666667,-2.6396232916666666
1413393213390760448,-0.0048869219055841231,0.028623399732707,0.084473935796525554,8.9158792916666663,0.21247741666666667,-2.5088679583333335
1413393213395760384,-0.010471975511965976,0.0097738438111682462,0.091455252804502868,9.2836286666666652,-0.04903325,-2.557901208333333
1413393213400760576,-0.016755160819145562,0.021642082724729686,0.086568330898918744,9.6758946666666663,-0.20430520833333332,-2.7703786249999998
1413393213405760512,-0.010471975511965976,0.02722713633111154,0.085172067497323284,9.3898673749999997,-0.27785508333333331,-2.6477955
1413393213410760448,-0.0013962634015954637,0.016755160819145562,0.08237954069413235,9.4307284166666658,-0.30237170833333332,-2.5905900416666663
1413393213415760384,0.011868238913561441,0.025132741228718346,0.080285145591739146,9.4470728333333334,-0.196133,-2.5333845833333335
1413393213420760576,0.008377580409572781,0.018151424220741029,0.08307767239493008,9.5369671250000003,-0.016344416666666667,-2.7540342083333331
1413393213425760512,0.0062831853071795866,0.037000980142279788,0.074001960284559576,9.4552450416666662,0.10623870833333333,-2.827584083333333
1413393213430760448,-0.0055850536063818549,0.02722713633111154,0.085172067497323284,8.9894291666666657,0.17161637500000002,-2.5415567916666664
1413393213435760384,-0.0069813170079773184,0.011868238913561441,0.097738438111682452,9.332661916666666,-0.024516625,-2.623278875
1413393213440760576,-0.011868238913561441,0.020245819323134219,0.094945911308491532,9.7576167499999986,-0.17161637500000002,-2.7540342083333331
1413393213445760512,-0.0097738438111682462,0.02722713633111154,0.091455252804502868,9.2918008749999998,-0.27785508333333331,-2.6641399166666666
1413393213450760448,0.0034906585039886592,0.012566370614359173,0.094247779607693802,9.1610455416666667,-0.31871612500000002,-2.557901208333333
1413393213455760384,0.008377580409572781,0.016755160819145562,0.08168140899333462,9.4307284166666658,-0.14709974999999997,-2.6151066666666667
1413393213460760576,0.0097738438111682462,0.018849555921538759,0.08307767239493008,9.594172583333334,0.040861041666666667,-2.8684451249999996
1413393213465760512,0.00069813170079773186,0.033510321638291124,0.075398223686155036,9.594172583333334,0.089894291666666667,-2.7050009583333332
1413393213470760448,-0.0055850536063818549,0.035604716740684328,0.074001960284559576,9.3980395833333326,0.17161637500000002,-2.6804843333333328
1413393213475760384,-0.010471975511965976,0.032114058236695664,0.084473935796525554,9.1038400833333331,0.14709974999999997,-2.4516624999999999
1413393213480760576,-0.014660765716752367,0.019547687622336492,0.092851516206098328,9.7085834999999996,-0.17161637500000002,-2.7785508333333331
1413393213485760512,-0.0090757121103705145,0.041189770347066175,0.08307767239493008,9.6268614166666655,-0.35957716666666667,-2.6477955
1413393213490760448,0.0013962634015954637,0.020245819323134219,0.085172067497323284,9.1773899583333325,-0.3350605416666666,-2.5252123749999997
1413393213495760384,0.0097738438111682462,0.016755160819145562,0.080285145591739146,9.3898673749999997,-0.10623870833333333,-2.7703786249999998
1413393213500760576,0.0090757121103705145,0.0153588974175501,0.078888882190143686,9.332661916666666,-0.0081722083333333334,-2.5905900416666663
1413393213505760512,-0.00069813170079773186,0.023038346126325153,0.075398223686155036,9.6513780416666659,0.10623870833333333,-2.9011339583333333
1413393213510760448,-0.0055850536063818549,0.039793506945470715,0.073303828583761846,9.3980395833333326,0.196133,-2.6477955
1413393213515760384,-0.011868238913561441,0.023736477827122883,0.08237954069413235,9.2509398333333337,0.089894291666666667,-2.6804843333333328
1413393213520760576,-0.013962634015954637,0.019547687622336492,0.088662726001311934,9.3898673749999997,-0.098066500000000001,-2.6151066666666667
1413393213525760512,-0.011868238913561441,0.025132741228718346,0.094247779607693802,9.6840668749999992,-0.41678262500000002,-2.8684451249999996
1413393213530760448,-0.0048869219055841231,0.038397243543875248,0.08377580409572781,9.1855621666666654,-0.392266,-2.5006957499999998
1413393213535760384,0.012566370614359173,0.0,0.096342174710086978,9.193734375,-0.21247741666666667,-2.5905900416666663
1413393213540760576,0.0153588974175501,0.024434609527920613,0.084473935796525554,9.471589458333332,-0.032688833333333334,-2.6641399166666666
1413393213545760512,0.0020943951023931952,0.017453292519943295,0.080285145591739146,9.3571785416666664,0.17978858333333333,-2.6641399166666666
1413393213550760448,-0.0090757121103705145,0.030019663134302467,0.071907565182166372,9.7494445416666657,0.122583125,-2.9828560416666661
1413393213555760384,-0.011868238913561441,0.032114058236695664,0.07958701389094143,9.242767624999999,0.065377666666666667,-2.5497290000000001
1413393213560760576,-0.013962634015954637,0.02583087292951608,0.088662726001311934,9.4634172499999991,-0.032688833333333334,-2.7867230416666664
1413393213565760512,-0.013264502315156905,0.029321531433504733,0.086568330898918744,9.4552450416666662,-0.22882183333333334,-2.5497290000000001
1413393213570760448,-0.0076794487087750501,0.0307177948351002,0.08168140899333462,9.5369671250000003,-0.43312704166666666,-2.7785508333333331
1413393213575760384,0.011868238913561441,0.02652900463031381,0.089360857702109678,9.0466346249999994,-0.30237170833333332,-2.4353180833333332
1413393213580760576,0.020245819323134219,0.008377580409572781,0.088662726001311934,9.4961060833333324,0.024516625,-2.7785508333333331
1413393213585760512,0.008377580409572781,0.029321531433504733,0.08168140899333462,9.4470728333333334,0.089894291666666667,-2.6477955
1413393213590760448,-0.0027925268031909274,0.018151424220741029,0.076794487087750496,9.6023447916666651,0.098066500000000001,-2.9583394166666666
1413393213595760384,-0.008377580409572781,0.028623399732707,0.085172067497323284,9.3571785416666664,0.18796079166666665,-2.6641399166666666
1413393213600760576,-0.017453292519943295,0.016057029118347832,0.087266462599716474,9.471589458333332,0.0081722083333333334,-2.8112396666666668
1413393213605760512,-0.016755160819145562,0.036302848441482058,0.090757121103705138,9.6350336250000002,-0.16344416666666667,-2.7540342083333331
1413393213610760448,-0.0090757121103705145,0.028623399732707,0.088662726001311934,9.2591120416666666,-0.31871612500000002,-2.6151066666666667
1413393213615760384,0.0027925268031909274,0.028623399732707,0.087266462599716474,9.1447011249999992,-0.28602729166666663,-2.5170401666666664
1413393213620760576,0.012566370614359173,0.0055850536063818549,0.08307767239493008,9.3653507499999993,-0.26968287499999999,-2.5333845833333335
1413393213625760512,0.012566370614359173,0.02583087292951608,0.07819075048934597,9.8148222083333323,0.081722083333333334,-2.8766173333333334
1413393213630760448,0.00069813170079773186,0.025132741228718346,0.076794487087750496,9.2100787916666658,0.11441091666666667,-2.6314510833333329
1413393213635760384,-0.008377580409572781,0.014660765716752367,0.07749261878854824,9.4143839999999983,0.122583125,-2.803067458333333
1413393213640760576,-0.010471975511965976,0.028623399732707,0.080285145591739146,9.2754564583333323,-0.081722083333333334,-2.5252123749999997
1413393213645760512,-0.014660765716752367,0.02652900463031381,0.087266462599716474,9.6105169999999998,-0.032688833333333334,-2.9419949999999999
1413393213650760448,-0.012566370614359173,0.029321531433504733,0.08237954069413235,9.2918008749999998,-0.3105439166666667,-2.5006957499999998
1413393213655760384,-0.0027925268031909274,0.030019663134302467,0.086568330898918744,9.3408341249999989,-0.28602729166666663,-2.6968287499999999
1413393213660760576,0.010471975511965976,0.023736477827122883,0.085870199198121014,9.1447011249999992,-0.25333845833333329,-2.3944570416666666
1413393213665760512,0.01117010721276371,0.014660765716752367,0.08307767239493008,9.6758946666666663,-0.032688833333333334,-2.9256505833333333
1413393213670760448,0.0062831853071795866,0.032114058236695664,0.08168140899333462,9.3571785416666664,0.073549874999999987,-2.5170401666666664
1413393213675760384,-0.0027925268031909274,0.013264502315156905,0.07958701389094143,9.3898673749999997,0.065377666666666667,-2.7785508333333331
1413393213680760576,-0.0090757121103705145,0.032812189937493394,0.078888882190143686,9.4634172499999991,0.040861041666666667,-2.6641399166666666
1413393213685760512,-0.01117010721276371,0.014660765716752367,0.085172067497323284,9.5042782916666653,-0.073549874999999987,-3.0318892916666664
1413393213690760448,-0.008377580409572781,0.037699111843077518,0.089360857702109678,9.6105169999999998,-0.17978858333333333,-2.6069344583333329
1413393213695760384,-0.0069813170079773184,0.02583087292951608,0.08377580409572781,9.4470728333333334,-0.26151066666666667,-2.7131731666666665
1413393213700760576,0.0048869219055841231,0.034208453339088861,0.084473935796525554,9.2999730833333327,-0.23699404166666665,-2.5088679583333335
1413393213705760512,0.010471975511965976,0.0062831853071795866,0.088662726001311934,9.3898673749999997,-0.073549874999999987,-2.6641399166666666
1413393213710760448,0.008377580409572781,0.030019663134302467,0.088662726001311934,9.5451393333333332,0.13075533333333333,-2.7050009583333332
1413393213715760384,-0.0048869219055841231,0.013962634015954637,0.085172067497323284,9.2182509999999986,0.040861041666666667,-2.5088679583333335
1413393213720760576,-0.008377580409572781,0.023736477827122883,0.08168140899333462,9.6023447916666651,-0.024516625,-2.8847895416666667
1413393213725760512,-0.0055850536063818549,0.023038346126325153,0.087266462599716474,9.242767624999999,-0.11441091666666667,-2.5088679583333335
1413393213730760448,-0.0076794487087750501,0.020245819323134219,0.085172067497323284,9.4634172499999991,-0.04903325,-2.8684451249999996
1413393213735760384,-0.0048869219055841231,0.02583087292951608,0.078888882190143686,9.2672842499999994,-0.15527195833333335,-2.5742456250000001
1413393213740760576,-0.00069813170079773186,0.02652900463031381,0.076794487087750496,9.5614837499999989,-0.21247741666666667,-2.8194118749999997
1413393213745760512,0.01117010721276371,0.029321531433504733,0.08237954069413235,9.1120122916666659,-0.065377666666666667,-2.5252123749999997
1413393213750760448,0.0062831853071795866,0.016057029118347832,0.087266462599716474,9.5533115416666661,0.089894291666666667,-2.8194118749999997
1413393213755760384,-0.0020943951023931952,0.02652900463031381,0.085172067497323284,9.2591120416666666,0.14709974999999997,-2.4925235416666665
1413393213760760576,-0.010471975511965976,0.0153588974175501,0.080285145591739146,9.5287949166666657,-0.122583125,-2.7703786249999998
1413393213765760512,-0.0055850536063818549,0.0307177948351002,0.08307767239493008,9.3081452916666674,-0.18796079166666665,-2.5006957499999998
1413393213770760448,-0.0048869219055841231,0.018849555921538759,0.08307767239493008,9.4470728333333334,-0.17978858333333333,-2.7703786249999998
1413393213775760384,-0.0048869219055841231,0.0307177948351002,0.07749261878854824,9.471589458333332,-0.089894291666666667,-2.6151066666666667
1413393213780760576,-0.0020943951023931952,0.019547687622336492,0.076794487087750496,9.3490063333333335,-0.17161637500000002,-2.6477955
1413393213785760512,0.0076794487087750501,0.033510321638291124,0.07609635538695278,9.3408341249999989,-0.18796079166666665,-2.6641399166666666
1413393213790760448,0.0048869219055841231,0.018151424220741029,0.084473935796525554,9.242767624999999,0.073549874999999987,-2.7540342083333331
1413393213795760384,-0.0048869219055841231,0.02722713633111154,0.087266462599716474,9.4879338749999995,0.21247741666666667,-2.7295175833333332
1413393213800760576,-0.0069813170079773184,0.024434609527920613,0.087964594300514204,9.3408341249999989,-0.13075533333333333,-2.5742456250000001
1413393213805760512,-0.012566370614359173,0.023038346126325153,0.08307767239493008,9.7412723333333329,-0.196133,-2.7785508333333331
1413393213810760448,-0.0041887902047863905,0.020943951023931952,0.087964594300514204,9.3244897083333331,-0.14709974999999997,-2.5905900416666663
1413393213815760384,0.00069813170079773186,0.022340214425527419,0.087964594300514204,9.5451393333333332,-0.20430520833333332,-2.7622064166666664
1413393213820760576,0.0041887902047863905,0.02583087292951608,0.07958701389094143,9.4797616666666666,-0.18796079166666665,-2.557901208333333
1413393213825760512,0.0041887902047863905,0.027925268031909273,0.07749261878854824,9.6186892083333326,-0.098066500000000001,-2.8112396666666668
1413393213830760448,0.0041887902047863905,0.034208453339088861,0.07819075048934597,9.2672842499999994,0.057205458333333334,-2.5252123749999997
1413393213835760384,-0.0076794487087750501,0.018151424220741029,0.080983277292536876,9.3571785416666664,0.11441091666666667,-2.582417833333333
1413393213840760576,-0.0041887902047863905,0.028623399732707,0.086568330898918744,9.4634172499999991,0.0081722083333333334,-2.6396232916666666
1413393213845760512,-0.008377580409572781,0.022340214425527419,0.08237954069413235,9.3735229583333322,-0.15527195833333335,-2.6968287499999999
1413393213850760448,-0.0062831853071795866,0.031415926535897934,0.086568330898918744,9.4552450416666662,-0.13075533333333333,-2.7376897916666665
1413393213855760384,-0.0034906585039886592,0.016057029118347832,0.08307767239493008,9.3244897083333331,-0.25333845833333329,-2.6723121249999999
1413393213860760576,-0.0013962634015954637,0.018151424220741029,0.074700091985357306,9.6105169999999998,-0.20430520833333332,-2.8602729166666667
1413393213865760512,0.008377580409572781,0.023736477827122883,0.07609635538695278,9.3816951666666668,-0.081722083333333334,-2.6804843333333328
1413393213870760448,0.01117010721276371,0.024434609527920613,0.08168140899333462,9.3408341249999989,0.14709974999999997,-2.6804843333333328
1413393213875760384,-0.0013962634015954637,0.020943951023931952,0.08168140899333462,9.3735229583333322,0.16344416666666667,-2.5987622500000001
1413393213880760576,-0.01117010721276371,0.0153588974175501,0.085870199198121014,9.4307284166666658,0.057205458333333334,-2.7458620000000002
1413393213885760512,-0.011868238913561441,0.020245819323134219,0.091455252804502868,9.3081452916666674,-0.17161637500000002,-2.582417833333333
1413393213890760448,-0.0076794487087750501,0.014660765716752367,0.092153384505300612,9.2999730833333327,-0.18796079166666665,-2.6641399166666666
1413393213895760384,-0.0020943951023931952,0.022340214425527419,0.086568330898918744,9.4389006250000005,-0.31871612500000002,-2.6723121249999999
1413393213900760576,0.0034906585039886592,0.013264502315156905,0.087266462599716474,9.5533115416666661,-0.26968287499999999,-2.6396232916666666
1413393213905760512,0.011868238913561441,0.022340214425527419,0.074001960284559576,9.7821333750000008,-0.26151066666666667,-2.7703786249999998
1413393213910760448,0.011868238913561441,0.033510321638291124,0.074001960284559576,9.2999730833333327,0.18796079166666665,-2.557901208333333
1413393213915760384,0.0048869219055841231,0.017453292519943295,0.080983277292536876,9.4307284166666658,0.16344416666666667,-2.8357562916666668
1413393213920760576,-0.014660765716752367,0.022340214425527419,0.085172067497323284,9.4552450416666662,0.10623870833333333,-2.623278875
1413393213925760512,-0.016755160819145562,0.022340214425527419,0.092851516206098328,9.3490063333333335,-0.13075533333333333,-2.5660734166666663
1413393213930760448,-0.017453292519943295,0.02722713633111154,0.087964594300514204,9.2509398333333337,-0.28602729166666663,-2.6723121249999999
1413393213935760384,-0.0027925268031909274,0.0153588974175501,0.088662726001311934,9.3408341249999989,-0.44129924999999998,-2.6968287499999999
1413393213940760576,0.011868238913561441,0.0097738438111682462,0.089360857702109678,9.3898673749999997,-0.31871612500000002,-2.623278875
1413393213945760512,0.018849555921538759,0.012566370614359173,0.078888882190143686,9.7657889583333333,-0.073549874999999987,-2.8112396666666668
1413393213950760448,0.013264502315156905,0.032812189937493394,0.069813170079773182,9.4961060833333324,0.27785508333333331,-2.7948952499999997
1413393213955760384,-0.00069813170079773186,0.0090757121103705145,0.07958701389094143,9.1038400833333331,0.4494714583333333,-2.5006957499999998
1413393213960760576,-0.018151424220741029,0.0020943951023931952,0.080983277292536876,9.6922390833333321,0.26968287499999999,-2.5497290000000001
1413393213965760512,-0.0307177948351002,0.01117010721276371,0.074700091985357306,9.5206227083333328,0.122583125,-2.5742456250000001
1413393213970760448,-0.034906585039886591,0.0020943951023931952,0.075398223686155036,9.5124504999999999,-0.28602729166666663,-2.582417833333333
1413393213975760384,-0.021642082724729686,-0.0069813170079773184,0.063529984772593598,9.4961060833333324,-0.62108783333333339,-2.557901208333333
1413393213980760576,0.02652900463031381,0.012566370614359173,0.062133721370998138,9.7249279166666671,-0.99700941666666665,-2.557901208333333
1413393213985760512,0.073303828583761846,0.012566370614359173,0.065624379874986788,9.6350336250000002,-0.60474341666666664,-2.7540342083333331
1413393213990760448,0.086568330898918744,0.036302848441482058,0.08237954069413235,9.3898673749999997,0.3350605416666666,-2.827584083333333
1413393213995760384,0.036302848441482058,0.041189770347066175,0.10611601852125524,9.2591120416666666,1.5772362083333331,-2.9665116249999999
1413393214000760576,-0.052359877559829883,0.049567350756638949,0.13473941825396224,9.3408341249999989,1.7733692083333334,-2.9992004583333332
1413393214005760512,-0.1291543646475804,0.048171087355043489,0.13055062804917586,8.6461964166666672,0.46581587499999999,-2.4271458749999999
1413393214010760448,-0.12217304763960307,0.018849555921538759,0.12077678423800758,8.6788852500000004,-1.3157255416666664,-2.3372515833333334
1413393214015760384,-0.034906585039886591,-0.0041887902047863905,0.1075122819228507,9.0302902083333318,-2.5006957499999998,-2.4516624999999999
1413393214020760576,0.060039326268604934,-0.02722713633111154,0.071209433481368656,9.5533115416666661,-1.6916471249999998,-2.8847895416666667
1413393214025760512,0.12356931104119852,0.0097738438111682462,0.043982297150257102,10.076332875,-0.065377666666666667,-2.9419949999999999
1413393214030760448,0.084473935796525554,0.046076692252650306,0.031415926535897934,9.2182509999999986,1.2421756666666668,-2.582417833333333
1413393214035760384,0.0013962634015954637,0.037699111843077518,0.041887902047863905,9.4062117916666654,1.8224024583333331,-2.7376897916666665
1413393214040760576,-0.063529984772593598,0.05166174585903216,0.080983277292536876,9.5369671250000003,1.0787315,-2.7867230416666664
1413393214045760512,-0.093549647906896058,0.049567350756638949,0.10192722831646883,9.5451393333333332,0.17978858333333333,-2.9011339583333333
1413393214050760448,-0.074700091985357306,0.05305800926062762,0.11309733552923257,9.6922390833333321,-0.68646550000000006,-2.8602729166666667
1413393214055760384,-0.029321531433504733,0.067718774977379978,0.10402162341886204,9.2591120416666666,-1.4137920416666665,-2.378112625
1413393214060760576,0.02583087292951608,0.013264502315156905,0.092851516206098328,9.1038400833333331,-1.1931424166666666,-2.2310128749999998
1413393214065760512,0.071907565182166372,0.013962634015954637,0.08377580409572781,9.4470728333333334,-0.36774937499999999,-2.4516624999999999
1413393214070760448,0.068416906678177722,0.0034906585039886592,0.084473935796525554,9.5778281666666665,0.50667691666666659,-2.8112396666666668
1413393214075760384,0.029321531433504733,0.0034906585039886592,0.084473935796525554,9.6840668749999992,0.93163174999999998,-3.0237170833333331
1413393214080760576,-0.016057029118347832,0.02722713633111154,0.07749261878854824,9.5124504999999999,0.37592158333333331,-2.6886565416666666
1413393214085760512,-0.052359877559829883,0.00069813170079773186,0.072605696882964116,9.332661916666666,0.016344416666666667,-2.4108014583333333
1413393214090760448,-0.034906585039886591,0.0041887902047863905,0.089360857702109678,9.1201845000000006,-0.024516625,-2.557901208333333
1413393214095760384,-0.029321531433504733,-0.0055850536063818549,0.096342174710086978,9.4389006250000005,-0.26968287499999999,-2.7785508333333331
1413393214100760576,-0.017453292519943295,0.0090757121103705145,0.094945911308491532,9.7576167499999986,-0.35140495833333335,-2.9992004583333332
1413393214105760512,-0.0020943951023931952,0.041189770347066175,0.069813170079773182,9.4552450416666662,-0.55571016666666662,-2.5333845833333335
1413393214110760448,0.016057029118347832,0.034208453339088861,0.057944931166211737,9.1610455416666667,-0.58839899999999989,-2.378112625
1413393214115760384,0.032114058236695664,0.02583087292951608,0.071907565182166372,8.6707130416666658,-0.10623870833333333,-2.5415567916666664
1413393214120760576,0.032812189937493394,-0.00069813170079773186,0.094945911308491532,9.4062117916666654,0.13892754166666665,-2.8847895416666667
1413393214125760512,0.0153588974175501,0.043982297150257102,0.088662726001311934,9.9864385833333333,0.34323275000000003,-3.162644625
1413393214130760448,-0.0076794487087750501,0.064228116473391328,0.07958701389094143,8.9812569583333328,0.28602729166666663,-2.5742456250000001
1413393214135760384,-0.033510321638291124,0.022340214425527419,0.060039326268604934,9.3163174999999985,-0.23699404166666665,-2.5905900416666663
1413393214140760576,-0.038397243543875248,0.028623399732707,0.074001960284559576,9.0466346249999994,0.0081722083333333334,-2.6069344583333329
1413393214145760512,-0.023736477827122883,0.0076794487087750501,0.099134701513277898,9.5206227083333328,-0.24516625,-2.8439284999999996
1413393214150760448,-0.01117010721276371,0.042586033748661642,0.098436569812480182,9.9700941666666658,-0.48216029166666663,-3.0318892916666664
1413393214155760384,0.0090757121103705145,0.037699111843077518,0.087964594300514204,9.0956678750000002,-0.4903325,-2.4761791249999998
1413393214160760576,0.02583087292951608,0.0062831853071795866,0.078888882190143686,9.5614837499999989,-0.64560445833333324,-2.6559677083333328
1413393214165760512,0.035604716740684328,0.02583087292951608,0.071209433481368656,9.4961060833333324,-0.024516625,-2.7213453750000003
1413393214170760448,0.033510321638291124,0.012566370614359173,0.10681415022205297,9.2100787916666658,0.47398808333333331,-2.6559677083333328
1413393214175760384,0.013264502315156905,0.02652900463031381,0.12217304763960307,9.994610791666668,0.41678262500000002,-3.0890947499999997
1413393214180760576,-0.016057029118347832,0.039095375244672985,0.10402162341886204,9.0793234583333327,0.27785508333333331,-2.4761791249999998
1413393214185760512,-0.025132741228718346,0.0153588974175501,0.090757121103705138,9.4552450416666662,-0.20430520833333332,-2.4353180833333332
1413393214190760448,-0.028623399732707,0.025132741228718346,0.069115038378975438,9.5860003749999994,-0.22064962499999999,-2.5742456250000001
1413393214195760384,-0.017453292519943295,0.008377580409572781,0.080983277292536876,8.9077070833333334,0.032688833333333334,-2.4353180833333332
1413393214200760576,0.00069813170079773186,0.013264502315156905,0.099134701513277898,9.5778281666666665,-0.13892754166666665,-2.7867230416666664
1413393214205760512,0.0020943951023931952,0.030019663134302467,0.074700091985357306,9.3735229583333322,-0.3105439166666667,-2.4108014583333333
1413393214210760448,0.011868238913561441,0.016755160819145562,0.065624379874986788,9.3898673749999997,-0.28602729166666663,-2.6641399166666666
1413393214215760384,0.019547687622336492,0.019547687622336492,0.049567350756638949,9.3898673749999997,-0.25333845833333329,-2.5497290000000001
1413393214220760576,0.017453292519943295,0.032114058236695664,0.060737457969402671,9.4062117916666654,0.23699404166666665,-2.6396232916666666
1413393214225760512,0.0090757121103705145,0.028623399732707,0.095644043009289262,9.4470728333333334,0.67829329166666663,-2.8929617499999996
1413393214230760448,-0.017453292519943295,0.038397243543875248,0.097040306410884708,9.5124504999999999,0.31871612500000002,-2.803067458333333
1413393214235760384,-0.039793506945470715,0.042586033748661642,0.073303828583761846,9.5042782916666653,-0.23699404166666665,-2.8439284999999996
1413393214240760576,-0.039793506945470715,0.030019663134302467,0.064228116473391328,9.0874956666666655,-0.43312704166666666,-2.5088679583333335
1413393214245760512,-0.025132741228718346,0.020245819323134219,0.059341194567807204,9.5206227083333328,-0.58022679166666657,-2.7131731666666665
1413393214250760448,0.0013962634015954637,0.031415926535897934,0.074700091985357306,9.332661916666666,-0.26151066666666667,-2.6804843333333328
1413393214255760384,0.02652900463031381,0.014660765716752367,0.11379546723003027,9.1283567083333317,-0.196133,-2.6641399166666666
1413393214260760576,0.019547687622336492,0.021642082724729686,0.097040306410884708,9.5778281666666665,-0.25333845833333329,-2.8929617499999996
1413393214265760512,0.0055850536063818549,0.02583087292951608,0.068416906678177722,9.5042782916666653,-0.23699404166666665,-2.6886565416666666
1413393214270760448,0.0090757121103705145,0.0055850536063818549,0.078888882190143686,9.2182509999999986,-0.040861041666666667,-2.6396232916666666
1413393214275760384,-0.0041887902047863905,0.019547687622336492,0.067718774977379978,9.2754564583333323,0.065377666666666667,-2.6968287499999999
1413393214280760576,-0.0097738438111682462,0.030019663134302467,0.096342174710086978,9.5369671250000003,0.14709974999999997,-2.8766173333333334
1413393214285760512,-0.01117010721276371,0.02722713633111154,0.12636183784438945,9.3816951666666668,0.073549874999999987,-2.7050009583333332
1413393214290760448,-0.020245819323134219,0.034906585039886591,0.11030480872604163,9.3816951666666668,-0.21247741666666667,-2.582417833333333
1413393214295760384,-0.023038346126325153,0.027925268031909273,0.072605696882964116,9.3816951666666668,-0.43312704166666666,-2.5088679583333335
1413393214300760576,-0.0020943951023931952,0.021642082724729686,0.067718774977379978,9.2754564583333323,-0.46581587499999999,-2.5088679583333335
1413393214305760512,0.013264502315156905,0.013962634015954637,0.067718774977379978,9.471589458333332,-0.196133,-2.8194118749999997
1413393214310760448,0.025132741228718346,0.02722713633111154,0.092851516206098328,9.7004112916666649,0.040861041666666667,-2.9419949999999999
1413393214315760384,0.02652900463031381,0.047472955654245766,0.11309733552923257,9.2836286666666652,0.45764366666666667,-2.852100708333333
1413393214320760576,0.0034906585039886592,0.031415926535897934,0.095644043009289262,9.0302902083333318,0.32688833333333334,-2.4353180833333332
1413393214325760512,-0.017453292519943295,0.0055850536063818549,0.069115038378975438,9.7004112916666649,0.073549874999999987,-2.7131731666666665
1413393214330760448,-0.022340214425527419,0.02722713633111154,0.058643062867009467,9.594172583333334,-0.016344416666666667,-2.6804843333333328
1413393214335760384,-0.027925268031909273,0.018151424220741029,0.068416906678177722,9.1283567083333317,0.0,-2.582417833333333
1413393214340760576,-0.018151424220741029,0.01117010721276371,0.094247779607693802,9.6023447916666651,-0.11441091666666667,-2.7867230416666664
1413393214345760512,-0.00069813170079773186,0.044680428851054839,0.1075122819228507,9.7085834999999996,-0.20430520833333332,-2.6886565416666666
1413393214350760448,0.010471975511965976,0.043284165449459372,0.090757121103705138,9.1447011249999992,-0.22064962499999999,-2.3699404166666667
1413393214355760384,0.012566370614359173,0.008377580409572781,0.058643062867009467,9.5696559583333336,-0.17161637500000002,-2.6477955
1413393214360760576,0.0041887902047863905,0.016755160819145562,0.040491638646268438,9.6186892083333326,-0.14709974999999997,-2.7213453750000003
1413393214365760512,0.0013962634015954637,0.024434609527920613,0.055850536063818547,9.3081452916666674,0.0,-2.7458620000000002
1413393214370760448,-0.0055850536063818549,0.010471975511965976,0.085172067497323284,9.3571785416666664,0.13075533333333333,-2.8602729166666667
1413393214375760384,-0.0027925268031909274,0.048171087355043489,0.1054178868204575,9.831166624999998,-0.089894291666666667,-2.8847895416666667
1413393214380760576,-0.0013962634015954637,0.047472955654245766,0.099134701513277898,8.9567403333333324,-0.081722083333333334,-2.4761791249999998
1413393214385760512,-0.0055850536063818549,0.01117010721276371,0.091455252804502868,8.9485681249999995,-0.024516625,-2.4189736666666666
1413393214390760448,-0.016755160819145562,0.0055850536063818549,0.064228116473391328,9.5696559583333336,-0.31871612500000002,-2.6396232916666666
1413393214395760384,-0.013962634015954637,0.014660765716752367,0.066322511575784518,9.5124504999999999,-0.27785508333333331,-2.8684451249999996
1413393214400760576,-0.0027925268031909274,0.025132741228718346,0.085870199198121014,9.193734375,-0.17161637500000002,-2.7131731666666665
1413393214405760512,0.0097738438111682462,0.023736477827122883,0.11030480872604163,9.7494445416666657,-0.32688833333333334,-2.9665116249999999
1413393214410760448,0.018849555921538759,0.046774823953448029,0.10402162341886204,9.332661916666666,-0.073549874999999987,-2.582417833333333
1413393214415760384,0.021642082724729686,0.031415926535897934,0.092153384505300612,9.2100787916666658,0.21247741666666667,-2.5660734166666663
1413393214420760576,0.0069813170079773184,0.011868238913561441,0.08307767239493008,9.2019065833333329,0.15527195833333335,-2.4843513333333336
1413393214425760512,-0.016057029118347832,0.0090757121103705145,0.065624379874986788,9.7657889583333333,-0.0081722083333333334,-2.8847895416666667
1413393214430760448,-0.020943951023931952,0.030019663134302467,0.076794487087750496,9.7004112916666649,0.065377666666666667,-2.9419949999999999
1413393214435760384,-0.020245819323134219,0.041887902047863905,0.095644043009289262,9.2182509999999986,-0.04903325,-2.5905900416666663
1413393214440760576,-0.0055850536063818549,0.028623399732707,0.10262536001726656,9.4470728333333334,-0.31871612500000002,-2.7622064166666664
1413393214445760512,0.0097738438111682462,0.032114058236695664,0.091455252804502868,9.471589458333332,-0.26968287499999999,-2.623278875
1413393214450760448,0.014660765716752367,0.038397243543875248,0.07958701389094143,9.2100787916666658,0.081722083333333334,-2.4925235416666665
1413393214455760384,0.0041887902047863905,0.0013962634015954637,0.067020643276582248,9.1528733333333321,0.016344416666666667,-2.6559677083333328
1413393214460760576,-0.0048869219055841231,0.0013962634015954637,0.056548667764616284,9.6595502499999988,-0.073549874999999987,-2.8112396666666668
1413393214465760512,-0.011868238913561441,0.034208453339088861,0.069813170079773182,9.6268614166666655,-0.0081722083333333334,-2.8929617499999996
1413393214470760448,-0.0069813170079773184,0.031415926535897934,0.097738438111682452,9.0711512499999998,0.040861041666666667,-2.4843513333333336
1413393214475760384,-0.0097738438111682462,0.022340214425527419,0.10122909661567112,9.5533115416666661,-0.057205458333333334,-2.7213453750000003
1413393214480760576,-0.00069813170079773186,0.036302848441482058,0.092851516206098328,9.5451393333333332,-0.081722083333333334,-2.6069344583333329
1413393214485760512,-0.0020943951023931952,0.030019663134302467,0.08168140899333462,8.9894291666666657,-0.040861041666666667,-2.3617682083333333
1413393214490760448,-0.0048869219055841231,0.0027925268031909274,0.070511301780570912,9.5533115416666661,-0.15527195833333335,-2.7213453750000003
1413393214495760384,-0.010471975511965976,0.012566370614359173,0.062831853071795868,9.6268614166666655,-0.27785508333333331,-2.7703786249999998
1413393214500760576,-0.0048869219055841231,0.034208453339088861,0.067020643276582248,9.6513780416666659,-0.30237170833333332,-2.9583394166666666
1413393214505760512,0.0062831853071795866,0.032812189937493394,0.093549647906896058,9.0956678750000002,-0.11441091666666667,-2.6396232916666666
1413393214510760448,0.01117010721276371,0.030019663134302467,0.10122909661567112,9.5451393333333332,-0.15527195833333335,-2.7540342083333331
1413393214515760384,0.014660765716752367,0.038397243543875248,0.090757121103705138,9.4470728333333334,0.04903325,-2.6968287499999999
1413393214520760576,0.0055850536063818549,0.022340214425527419,0.080285145591739146,9.1283567083333317,0.089894291666666667,-2.4925235416666665
1413393214525760512,-0.018151424220741029,0.014660765716752367,0.068416906678177722,9.4634172499999991,-0.057205458333333334,-2.7867230416666664
1413393214530760448,-0.020245819323134219,0.008377580409572781,0.076794487087750496,9.4143839999999983,-0.16344416666666667,-2.7458620000000002
1413393214535760384,-0.013962634015954637,0.034906585039886591,0.090757121103705138,9.6350336250000002,-0.15527195833333335,-2.8439284999999996
1413393214540760576,-0.0076794487087750501,0.027925268031909273,0.10192722831646883,9.0793234583333327,-0.22882183333333334,-2.582417833333333
1413393214545760512,0.011868238913561441,0.023736477827122883,0.1054178868204575,9.5287949166666657,-0.34323275000000003,-2.7376897916666665
1413393214550760448,0.023038346126325153,0.034208453339088861,0.098436569812480182,9.4307284166666658,-0.057205458333333334,-2.6559677083333328
1413393214555760384,0.016057029118347832,0.024434609527920613,0.084473935796525554,9.1528733333333321,0.13075533333333333,-2.4843513333333336
1413393214560760576,-0.0013962634015954637,0.011868238913561441,0.071209433481368656,9.4470728333333334,0.065377666666666667,-2.7295175833333332
1413393214565760512,-0.01117010721276371,0.010471975511965976,0.080285145591739146,9.5696559583333336,0.0081722083333333334,-2.803067458333333
1413393214570760448,-0.016755160819145562,0.042586033748661642,0.085870199198121014,9.4961060833333324,-0.065377666666666667,-2.6804843333333328
1413393214575760384,-0.017453292519943295,0.019547687622336492,0.091455252804502868,9.2019065833333329,-0.122583125,-2.5905900416666663
1413393214580760576,0.0013962634015954637,0.033510321638291124,0.092851516206098328,9.7249279166666671,-0.22882183333333334,-2.7131731666666665
1413393214585760512,0.0041887902047863905,0.041887902047863905,0.07819075048934597,9.3898673749999997,-0.122583125,-2.6477955
1413393214590760448,0.0027925268031909274,0.016057029118347832,0.066322511575784518,8.9730847499999999,-0.016344416666666667,-2.4516624999999999
1413393214595760384,-0.0027925268031909274,0.0055850536063818549,0.065624379874986788,9.6105169999999998,-0.057205458333333334,-2.6641399166666666
1413393214600760576,-0.0069813170079773184,0.012566370614359173,0.068416906678177722,9.5533115416666661,-0.057205458333333334,-2.6886565416666666
1413393214605760512,-0.008377580409572781,0.030019663134302467,0.085172067497323284,9.5451393333333332,-0.196133,-2.8847895416666667
1413393214610760448,-0.0062831853071795866,0.020245819323134219,0.08377580409572781,9.2836286666666652,-0.098066500000000001,-2.6723121249999999
1413393214615760384,0.00069813170079773186,0.034906585039886591,0.092153384505300612,9.6922390833333321,-0.13075533333333333,-2.7295175833333332
1413393214620760576,0.0069813170079773184,0.034906585039886591,0.093549647906896058,9.4470728333333334,0.0,-2.7050009583333332
1413393214625760512,0.0034906585039886592,0.033510321638291124,0.08377580409572781,9.1201845000000006,-0.024516625,-2.5006957499999998
1413393214630760448,-0.0048869219055841231,0.013264502315156905,0.074700091985357306,9.3653507499999993,-0.13075533333333333,-2.6477955
1413393214635760384,-0.0069813170079773184,0.0034906585039886592,0.085870199198121014,9.5778281666666665,-0.196133,-2.7131731666666665
1413393214640760576,-0.0055850536063818549,0.034906585039886591,0.080983277292536876,9.6595502499999988,-0.26968287499999999,-2.8357562916666668
1413393214645760512,-0.0020943951023931952,0.02652900463031381,0.086568330898918744,9.0874956666666655,-0.17978858333333333,-2.6559677083333328
1413393214650760448,0.0062831853071795866,0.018151424220741029,0.090058989402907408,9.4797616666666666,-0.089894291666666667,-2.8602729166666667
1413393214655760384,0.01117010721276371,0.031415926535897934,0.091455252804502868,9.594172583333334,0.0,-2.6477955
1413393214660760576,0.0048869219055841231,0.034906585039886591,0.08168140899333462,9.0874956666666655,-0.016344416666666667,-2.4843513333333336
1413393214665760512,-0.0020943951023931952,0.013264502315156905,0.078888882190143686,9.1201845000000006,0.032688833333333334,-2.5170401666666664
1413393214670760448,-0.0097738438111682462,0.011868238913561441,0.07749261878854824,9.5860003749999994,-0.040861041666666667,-2.5987622500000001
1413393214675760384,-0.010471975511965976,0.021642082724729686,0.088662726001311934,9.6268614166666655,-0.20430520833333332,-2.7622064166666664
1413393214680760576,-0.012566370614359173,0.02722713633111154,0.08377580409572781,9.3898673749999997,-0.089894291666666667,-2.6559677083333328
1413393214685760512,-0.0034906585039886592,0.034208453339088861,0.087266462599716474,9.5206227083333328,-0.081722083333333334,-2.8194118749999997
1413393214690760448,0.008377580409572781,0.036302848441482058,0.095644043009289262,9.3490063333333335,-0.122583125,-2.6151066666666667
1413393214695760384,0.012566370614359173,0.032114058236695664,0.090757121103705138,9.2754564583333323,-0.040861041666666667,-2.5088679583333335
1413393214700760576,0.0013962634015954637,0.021642082724729686,0.07749261878854824,9.2591120416666666,0.089894291666666667,-2.5742456250000001
1413393214705760512,0.00069813170079773186,0.017453292519943295,0.08168140899333462,9.3408341249999989,0.024516625,-2.6477955
1413393214710760448,-0.008377580409572781,0.010471975511965976,0.089360857702109678,9.594172583333334,-0.10623870833333333,-2.8357562916666668
1413393214715760384,-0.013264502315156905,0.02652900463031381,0.080285145591739146,9.5451393333333332,-0.081722083333333334,-2.6804843333333328
1413393214720760576,-0.018151424220741029,0.02652900463031381,0.073303828583761846,9.4307284166666658,-0.073549874999999987,-2.8194118749999997
1413393214725760512,-0.00069813170079773186,0.0307177948351002,0.087964594300514204,9.4470728333333334,-0.13892754166666665,-2.623278875
1413393214730760448,0.0062831853071795866,0.033510321638291124,0.090058989402907408,9.4634172499999991,-0.17161637500000002,-2.7295175833333332
1413393214735760384,0.0,0.024434609527920613,0.074001960284559576,9.3163174999999985,-0.04903325,-2.5252123749999997
1413393214740760576,-0.0013962634015954637,0.016755160819145562,0.074001960284559576,9.5287949166666657,-0.04903325,-2.6886565416666666
1413393214745760512,0.0034906585039886592,0.024434609527920613,0.080285145591739146,9.2836286666666652,-0.196133,-2.5742456250000001
1413393214750760448,-0.0048869219055841231,0.020245819323134219,0.076794487087750496,9.3980395833333326,-0.15527195833333335,-2.8194118749999997
1413393214755760384,-0.013264502315156905,0.022340214425527419,0.074001960284559576,9.5860003749999994,-0.016344416666666667,-2.7867230416666664
1413393214760760576,0.00069813170079773186,0.033510321638291124,0.091455252804502868,9.471589458333332,0.016344416666666667,-2.7050009583333332
1413393214765760512,0.0041887902047863905,0.032812189937493394,0.097040306410884708,9.1855621666666654,-0.098066500000000001,-2.5415567916666664
1413393214770760448,-0.0020943951023931952,0.023038346126325153,0.089360857702109678,9.2591120416666666,-0.10623870833333333,-2.6477955
1413393214775760384,-0.0041887902047863905,0.0153588974175501,0.080983277292536876,9.3898673749999997,0.0,-2.5987622500000001
1413393214780760576,0.0048869219055841231,0.0153588974175501,0.094247779607693802,9.4797616666666666,-0.11441091666666667,-2.6069344583333329
1413393214785760512,0.0,0.020245819323134219,0.086568330898918744,9.2591120416666666,-0.21247741666666667,-2.6559677083333328
1413393214790760448,-0.0048869219055841231,0.016057029118347832,0.075398223686155036,9.5369671250000003,-0.089894291666666667,-2.7540342083333331
1413393214795760384,-0.0027925268031909274,0.029321531433504733,0.08168140899333462,9.5614837499999989,0.032688833333333334,-2.7948952499999997
1413393214800760576,0.0027925268031909274,0.034906585039886591,0.10192722831646883,9.4961060833333324,0.04903325,-2.6396232916666666
1413393214805760512,-0.00069813170079773186,0.034906585039886591,0.087266462599716474,9.3244897083333331,-0.04903325,-2.623278875
1413393214810760448,-0.0090757121103705145,0.02652900463031381,0.076794487087750496,9.2672842499999994,-0.057205458333333334,-2.557901208333333
1413393214815760384,-0.0055850536063818549,0.017453292519943295,0.07958701389094143,9.4389006250000005,-0.13892754166666665,-2.7213453750000003
1413393214820760576,-0.0062831853071795866,0.022340214425527419,0.08168140899333462,9.3898673749999997,-0.20430520833333332,-2.5987622500000001
1413393214825760512,-0.0090757121103705145,0.0153588974175501,0.074001960284559576,9.5287949166666657,-0.13075533333333333,-2.8112396666666668
1413393214830760448,-0.0076794487087750501,0.028623399732707,0.071907565182166372,9.5778281666666665,0.024516625,-2.7622064166666664
1413393214835760384,0.00069813170079773186,0.02722713633111154,0.087964594300514204,9.5451393333333332,0.0081722083333333334,-2.7131731666666665
1413393214840760576,0.0041887902047863905,0.027925268031909273,0.091455252804502868,9.422556208333333,-0.024516625,-2.7131731666666665
1413393214845760512,-0.0034906585039886592,0.02652900463031381,0.075398223686155036,9.4552450416666662,-0.024516625,-2.6804843333333328
1413393214850760448,-0.0055850536063818549,0.020245819323134219,0.084473935796525554,9.2591120416666666,-0.024516625,-2.5006957499999998
1413393214855760384,0.0034906585039886592,0.020245819323134219,0.092851516206098328,9.4552450416666662,-0.26151066666666667,-2.6804843333333328
1413393214860760576,-0.0013962634015954637,0.017453292519943295,0.07958701389094143,9.2345954166666662,-0.17161637500000002,-2.5415567916666664
1413393214865760512,-0.008377580409572781,0.01117010721276371,0.070511301780570912,9.6677224583333334,-0.065377666666666667,-2.8439284999999996
1413393214870760448,-0.00069813170079773186,0.028623399732707,0.08237954069413235,9.4634172499999991,0.032688833333333334,-2.7295175833333332
1413393214875760384,0.0013962634015954637,0.029321531433504733,0.090757121103705138,9.4062117916666654,0.0081722083333333334,-2.7213453750000003
1413393214880760576,-0.0034906585039886592,0.033510321638291124,0.08307767239493008,9.3163174999999985,-0.0081722083333333334,-2.6069344583333329
1413393214885760512,-0.011868238913561441,0.029321531433504733,0.073303828583761846,9.4062117916666654,-0.073549874999999987,-2.6723121249999999
1413393214890760448,-0.0020943951023931952,0.025132741228718346,0.085172067497323284,9.3816951666666668,-0.24516625,-2.5742456250000001
1413393214895760384,0.0041887902047863905,0.020943951023931952,0.084473935796525554,9.3898673749999997,-0.27785508333333331,-2.6559677083333328
1413393214900760576,-0.00069813170079773186,0.01117010721276371,0.069813170079773182,9.5287949166666657,-0.040861041666666667,-2.8357562916666668
1413393214905760512,-0.0069813170079773184,0.0307177948351002,0.078888882190143686,9.5778281666666665,0.098066500000000001,-2.7376897916666665
1413393214910760448,-0.0041887902047863905,0.028623399732707,0.087964594300514204,9.4062117916666654,-0.098066500000000001,-2.6886565416666666
1413393214915760384,-0.0020943951023931952,0.02652900463031381,0.094247779607693802,9.471589458333332,-0.040861041666666667,-2.7213453750000003
1413393214920760576,-0.0097738438111682462,0.031415926535897934,0.085172067497323284,9.4634172499999991,0.024516625,-2.6641399166666666
1413393214925760512,-0.0076794487087750501,0.025132741228718346,0.092851516206098328,9.3081452916666674,-0.016344416666666667,-2.6151066666666667
1413393214930760448,0.0027925268031909274,0.020245819323134219,0.090058989402907408,9.3735229583333322,-0.48216029166666663,-2.5660734166666663
1413393214935760384,0.010471975511965976,0.013962634015954637,0.086568330898918744,9.3898673749999997,-0.26968287499999999,-2.5415567916666664
1413393214940760576,0.0034906585039886592,0.010471975511965976,0.074700091985357306,9.6268614166666655,0.032688833333333334,-2.7703786249999998
1413393214945760512,0.0,0.027925268031909273,0.07819075048934597,9.4961060833333324,0.04903325,-2.7213453750000003
1413393214950760448,-0.0034906585039886592,0.027925268031909273,0.07958701389094143,9.3571785416666664,0.04903325,-2.7376897916666665
1413393214955760384,-0.0062831853071795866,0.028623399732707,0.085870199198121014,9.4143839999999983,0.10623870833333333,-2.6968287499999999
1413393214960760576,-0.016755160819145562,0.020943951023931952,0.07749261878854824,9.4389006250000005,-0.04903325,-2.6641399166666666
1413393214965760512,-0.0055850536063818549,0.027925268031909273,0.084473935796525554,9.422556208333333,-0.29419949999999995,-2.5660734166666663
1413393214970760448,0.0041887902047863905,0.017453292519943295,0.08168140899333462,9.3571785416666664,-0.36774937499999999,-2.5905900416666663
1413393214975760384,0.0048869219055841231,0.013264502315156905,0.074700091985357306,9.4143839999999983,-0.15527195833333335,-2.7213453750000003
1413393214980760576,0.00069813170079773186,0.01117010721276371,0.07749261878854824,9.594172583333334,0.057205458333333334,-2.8194118749999997
1413393214985760512,-0.0013962634015954637,0.032114058236695664,0.080983277292536876,9.6023447916666651,0.073549874999999987,-2.7540342083333331
1413393214990760448,-0.0048869219055841231,0.028623399732707,0.090058989402907408,9.1120122916666659,0.065377666666666667,-2.6069344583333329
1413393214995760384,-0.0062831853071795866,0.030019663134302467,0.090058989402907408,9.4879338749999995,0.016344416666666667,-2.7295175833333332
1413393215000760576,-0.011868238913561441,0.023038346126325153,0.087964594300514204,9.4879338749999995,-0.081722083333333334,-2.6151066666666667
1413393215005760512,0.00069813170079773186,0.02652900463031381,0.084473935796525554,9.5042782916666653,-0.38409379166666668,-2.6477955
1413393215010760448,0.008377580409572781,0.01117010721276371,0.074700091985357306,9.1610455416666667,-0.22882183333333334,-2.4843513333333336
1413393215015760384,0.010471975511965976,0.0090757121103705145,0.062133721370998138,9.6840668749999992,-0.18796079166666665,-2.7948952499999997
1413393215020760576,0.0097738438111682462,0.016755160819145562,0.074001960284559576,9.5287949166666657,0.16344416666666667,-2.5742456250000001
1413393215025760512,-0.0076794487087750501,0.018151424220741029,0.080285145591739146,9.3490063333333335,0.26968287499999999,-2.7785508333333331
1413393215030760448,-0.024434609527920613,0.024434609527920613,0.085172067497323284,9.5042782916666653,0.4494714583333333,-2.8194118749999997
1413393215035760384,-0.041887902047863905,0.018151424220741029,0.084473935796525554,9.3081452916666674,0.17161637500000002,-2.6559677083333328
1413393215040760576,-0.048869219055841226,0.023038346126325153,0.08168140899333462,9.3408341249999989,-0.032688833333333334,-2.5497290000000001
1413393215045760512,-0.041887902047863905,-0.0062831853071795866,0.068416906678177722,9.3490063333333335,-0.58022679166666657,-2.5088679583333335
1413393215050760448,-0.0048869219055841231,0.0034906585039886592,0.058643062867009467,9.6922390833333321,-1.0869037083333333,-2.6804843333333328
1413393215055760384,0.042586033748661642,0.022340214425527419,0.050963614158234416,9.2019065833333329,-0.73549874999999998,-2.4761791249999998
1413393215060760576,0.08237954069413235,0.012566370614359173,0.087266462599716474,9.5124504999999999,0.0081722083333333334,-2.8439284999999996
1413393215065760512,0.078888882190143686,0.036302848441482058,0.097738438111682452,9.2672842499999994,0.67829329166666663,-2.5006957499999998
1413393215070760448,0.014660765716752367,0.025132741228718346,0.086568330898918744,9.643205833333333,1.0296982499999998,-2.8357562916666668
1413393215075760384,-0.056548667764616284,0.046076692252650306,0.090058989402907408,9.3898673749999997,0.89894291666666659,-2.8684451249999996
1413393215080760576,-0.093549647906896058,0.039793506945470715,0.10262536001726656,8.5399577083333327,-0.057205458333333334,-2.4271458749999999
1413393215085760512,-0.067020643276582248,0.0041887902047863905,0.12985249634837812,9.0139457916666661,-1.1686257916666667,-2.623278875
1413393215090760448,0.0034906585039886592,0.018151424220741029,0.14172073526193954,9.3816951666666668,-1.4383086666666667,-2.4271458749999999
1413393215095760384,0.056548667764616284,0.0090757121103705145,0.11798425743481668,9.4552450416666662,-0.93163174999999998,-2.6804843333333328
1413393215100760576,0.060039326268604934,-0.013962634015954637,0.066322511575784518,9.5860003749999994,0.016344416666666667,-2.7376897916666665
1413393215105760512,0.02722713633111154,0.033510321638291124,0.031415926535897934,9.8638554583333331,0.71098212499999991,-2.827584083333333
1413393215110760448,-0.016057029118347832,0.02652900463031381,0.030019663134302467,9.193734375,0.62108783333333339,-2.7295175833333332
1413393215115760384,-0.0307177948351002,0.039793506945470715,0.065624379874986788,9.4961060833333324,0.27785508333333331,-2.6723121249999999
1413393215120760576,-0.020943951023931952,0.052359877559829883,0.095644043009289262,9.4307284166666658,0.057205458333333334,-2.6641399166666666
1413393215125760512,-0.0307177948351002,0.032812189937493394,0.087266462599716474,9.5042782916666653,-0.032688833333333334,-2.9256505833333333
1413393215130760448,-0.032812189937493394,0.059341194567807204,0.07749261878854824,9.1120122916666659,-0.10623870833333333,-2.3862848333333333
1413393215135760384,-0.018151424220741029,0.013264502315156905,0.08307767239493008,9.1692177499999996,-0.46581587499999999,-2.5252123749999997
1413393215140760576,0.016755160819145562,0.032812189937493394,0.098436569812480182,9.6595502499999988,-0.7028099166666667,-2.6069344583333329
1413393215145760512,0.044680428851054839,0.014660765716752367,0.094945911308491532,9.2999730833333327,-0.196133,-2.5905900416666663
1413393215150760448,0.036302848441482058,0.0076794487087750501,0.089360857702109678,9.6268614166666655,0.31871612500000002,-3.0237170833333331
1413393215155760384,0.0055850536063818549,0.042586033748661642,0.07749261878854824,9.4389006250000005,0.48216029166666663,-2.6804843333333328
1413393215160760576,-0.02652900463031381,-0.0069813170079773184,0.074001960284559576,9.4879338749999995,0.040861041666666667,-2.6641399166666666
1413393215165760512,-0.018849555921538759,0.018849555921538759,0.069115038378975438,9.8883720833333317,-0.22882183333333334,-2.6968287499999999
1413393215170760448,-0.0020943951023931952,0.036302848441482058,0.07819075048934597,9.1528733333333321,0.073549874999999987,-2.5006957499999998
1413393215175760384,-0.0097738438111682462,-0.00069813170079773186,0.08168140899333462,9.3898673749999997,0.15527195833333335,-2.9583394166666666
1413393215180760576,-0.031415926535897934,0.034906585039886591,0.055850536063818547,9.7249279166666671,-0.196133,-2.827584083333333
1413393215185760512,-0.023736477827122883,0.038397243543875248,0.057944931166211737,9.1038400833333331,-0.52302133333333334,-2.3535959999999996
1413393215190760448,0.023038346126325153,-0.0013962634015954637,0.090058989402907408,9.1365289166666663,-0.62108783333333339,-2.4761791249999998
1413393215195760384,0.047472955654245766,0.02652900463031381,0.097040306410884708,9.3980395833333326,-0.40043820833333332,-2.6396232916666666
1413393215200760576,0.032812189937493394,0.0034906585039886592,0.10053096491487339,9.0711512499999998,0.41678262500000002,-2.7703786249999998
1413393215205760512,-0.0048869219055841231,0.019547687622336492,0.090058989402907408,9.8475110416666656,0.58839899999999989,-2.9992004583333332
1413393215210760448,-0.037699111843077518,0.061435589670200401,0.070511301780570912,9.6595502499999988,-0.04903325,-2.6641399166666666
1413393215215760384,-0.02583087292951608,0.020245819323134219,0.088662726001311934,9.0384624166666665,-0.37592158333333331,-2.4761791249999998
1413393215220760576,-0.0069813170079773184,0.028623399732707,0.095644043009289262,9.3980395833333326,-0.36774937499999999,-2.4516624999999999
1413393215225760512,-0.0034906585039886592,0.01117010721276371,0.089360857702109678,9.2836286666666652,0.032688833333333334,-2.9011339583333333
1413393215230760448,-0.01117010721276371,0.0307177948351002,0.078888882190143686,9.4879338749999995,0.11441091666666667,-2.8439284999999996
1413393215235760384,-0.014660765716752367,0.043982297150257102,0.064926248174189058,9.594172583333334,-0.40861041666666664,-2.7213453750000003
1413393215240760576,0.0090757121103705145,0.021642082724729686,0.08377580409572781,9.5042782916666653,-0.43312704166666666,-2.7131731666666665
1413393215245760512,0.038397243543875248,0.038397243543875248,0.10053096491487339,9.1365289166666663,-0.04903325,-2.4598347083333332
1413393215250760448,0.02583087292951608,0.0027925268031909274,0.094945911308491532,9.0221180000000007,0.35957716666666667,-2.6151066666666667
1413393215255760384,0.0,0.0076794487087750501,0.098436569812480182,9.7984777916666665,0.59657120833333332,-3.0809225416666663
1413393215260760576,-0.033510321638291124,0.037000980142279788,0.074700091985357306,9.8965442916666664,-0.032688833333333334,-2.7376897916666665
1413393215265760512,-0.0307177948351002,0.02652900463031381,0.074700091985357306,9.471589458333332,-0.31871612500000002,-2.6314510833333329
1413393215270760448,-0.0027925268031909274,0.041887902047863905,0.087266462599716474,9.1610455416666667,-0.20430520833333332,-2.4925235416666665
1413393215275760384,-0.00069813170079773186,0.0076794487087750501,0.088662726001311934,8.9240514999999991,-0.098066500000000001,-2.5987622500000001
1413393215280760576,-0.013264502315156905,-0.0034906585039886592,0.071209433481368656,10.051816249999998,0.04903325,-3.0727503333333335
1413393215285760512,-0.012566370614359173,0.044680428851054839,0.068416906678177722,9.5206227083333328,-0.25333845833333329,-2.4680069166666665
1413393215290760448,0.008377580409572781,0.034208453339088861,0.069115038378975438,9.4634172499999991,-0.51484912499999991,-2.7376897916666665
1413393215295760384,0.030019663134302467,0.020245819323134219,0.085172067497323284,8.883190458333333,-0.057205458333333334,-2.378112625
1413393215300760576,0.022340214425527419,0.0097738438111682462,0.099134701513277898,9.1283567083333317,0.35957716666666667,-2.5987622500000001
1413393215305760512,-0.014660765716752367,0.014660765716752367,0.080983277292536876,9.9047164999999993,0.3105439166666667,-3.0890947499999997
1413393215310760448,-0.027925268031909273,0.034208453339088861,0.087266462599716474,9.3898673749999997,-0.016344416666666667,-2.5333845833333335
1413393215315760384,-0.018849555921538759,0.014660765716752367,0.092851516206098328,9.6105169999999998,-0.48216029166666663,-2.9501672083333332
1413393215320760576,-0.00069813170079773186,0.031415926535897934,0.092153384505300612,9.1120122916666659,-0.3350605416666666,-2.4598347083333332
1413393215325760512,0.0069813170079773184,0.016057029118347832,0.097040306410884708,9.0221180000000007,0.089894291666666667,-2.557901208333333
1413393215330760448,-0.0090757121103705145,0.0041887902047863905,0.07819075048934597,9.6840668749999992,-0.13892754166666665,-2.9746838333333332
1413393215335760384,-0.013264502315156905,0.0307177948351002,0.063529984772593598,9.4470728333333334,-0.20430520833333332,-2.6477955
1413393215340760576,0.0013962634015954637,0.023736477827122883,0.075398223686155036,9.5860003749999994,-0.38409379166666668,-2.9093061666666666
1413393215345760512,0.020245819323134219,0.037699111843077518,0.085870199198121014,9.4470728333333334,-0.089894291666666667,-2.827584083333333
1413393215350760448,0.013962634015954637,0.046076692252650306,0.092851516206098328,8.8423294166666651,0.27785508333333331,-2.4353180833333332
1413393215355760384,-0.0076794487087750501,0.0027925268031909274,0.07958701389094143,9.733100125,-0.024516625,-2.9093061666666666
1413393215360760576,-0.0153588974175501,0.030019663134302467,0.069813170079773182,9.8638554583333331,-0.016344416666666667,-2.7540342083333331
1413393215365760512,-0.0062831853071795866,0.02652900463031381,0.088662726001311934,9.4389006250000005,0.040861041666666667,-2.7703786249999998
1413393215370760448,-0.0069813170079773184,0.024434609527920613,0.094945911308491532,9.2182509999999986,0.089894291666666667,-2.7867230416666664
1413393215375760384,-0.010471975511965976,0.0097738438111682462,0.098436569812480182,9.0302902083333318,0.081722083333333334,-2.4353180833333332
1413393215380760576,-0.018849555921538759,-0.0020943951023931952,0.076794487087750496,10.076332875,-0.42495483333333334,-2.9419949999999999
1413393215385760512,-0.0027925268031909274,0.016755160819145562,0.064926248174189058,9.6513780416666659,-0.35957716666666667,-2.7295175833333332
1413393215390760448,0.025132741228718346,0.016755160819145562,0.098436569812480182,9.2672842499999994,0.196133,-2.7703786249999998
1413393215395760384,0.029321531433504733,0.039095375244672985,0.10332349171806432,8.8096405833333318,-0.032688833333333334,-2.3535959999999996
1413393215400760576,-0.0048869219055841231,-0.017453292519943295,0.08168140899333462,9.4062117916666654,0.18796079166666665,-2.557901208333333
1413393215405760512,-0.013264502315156905,0.0097738438111682462,0.060737457969402671,9.8965442916666664,0.04903325,-2.7867230416666664
1413393215410760448,-0.011868238913561441,0.029321531433504733,0.086568330898918744,9.3571785416666664,-0.0081722083333333334,-2.7622064166666664
1413393215415760384,-0.013962634015954637,0.020943951023931952,0.099134701513277898,8.9077070833333334,0.024516625,-2.4434902916666665
1413393215420760576,-0.024434609527920613,-0.02652900463031381,0.08168140899333462,9.1283567083333317,-0.17978858333333333,-2.3617682083333333
1413393215425760512,-0.020245819323134219,-0.0027925268031909274,0.05375614096142535,10.2969825,-0.57205458333333326,-2.9665116249999999
1413393215430760448,0.0069813170079773184,0.032114058236695664,0.069115038378975438,9.4634172499999991,-0.35957716666666667,-2.6314510833333329
1413393215435760384,0.033510321638291124,0.02652900463031381,0.090058989402907408,9.4307284166666658,-0.27785508333333331,-2.7213453750000003
1413393215440760576,0.021642082724729686,0.023038346126325153,0.065624379874986788,8.9077070833333334,-0.22064962499999999,-2.132946375
1413393215445760512,0.0076794487087750501,-0.0097738438111682462,0.055850536063818547,9.9374053333333343,0.3105439166666667,-3.0645781249999997
1413393215450760448,0.0062831853071795866,0.044680428851054839,0.094945911308491532,9.3653507499999993,0.58022679166666657,-2.7867230416666664
1413393215455760384,-0.024434609527920613,0.02583087292951608,0.1075122819228507,8.7197462916666666,0.25333845833333329,-2.5660734166666663
1413393215460760576,-0.048171087355043489,0.011868238913561441,0.07958701389094143,9.2999730833333327,-0.40043820833333332,-2.6151066666666667
1413393215465760512,-0.030019663134302467,-0.012566370614359173,0.088662726001311934,9.422556208333333,-0.35957716666666667,-2.6396232916666666
1413393215470760448,0.0090757121103705145,0.024434609527920613,0.114493598930828,9.7739611666666661,-0.45764366666666667,-2.7703786249999998
1413393215475760384,0.020943951023931952,0.01117010721276371,0.1096066770252439,9.4470728333333334,-0.43312704166666666,-2.8112396666666668
1413393215480760576,0.0041887902047863905,0.016755160819145562,0.049567350756638949,9.4552450416666662,-0.26968287499999999,-2.7540342083333331
1413393215485760512,0.02652900463031381,0.018849555921538759,0.091455252804502868,9.5614837499999989,0.392266,-2.8602729166666667
1413393215490760448,0.021642082724729686,0.030019663134302467,0.1075122819228507,9.471589458333332,0.25333845833333329,-2.6396232916666666
1413393215495760384,-0.013962634015954637,0.047472955654245766,0.070511301780570912,9.733100125,-0.04903325,-2.7867230416666664
1413393215500760576,-0.022340214425527419,0.0034906585039886592,0.069813170079773182,8.793296166666666,0.11441091666666667,-2.6396232916666666
1413393215505760512,0.0013962634015954637,0.02722713633111154,0.10471975511965977,9.8148222083333323,0.0081722083333333334,-2.623278875
1413393215510760448,-0.008377580409572781,0.033510321638291124,0.094945911308491532,9.5451393333333332,-0.032688833333333334,-2.8847895416666667
1413393215515760384,-0.0307177948351002,0.0062831853071795866,0.043982297150257102,8.6053353749999992,-0.25333845833333329,-2.3454237916666667
1413393215520760576,0.0048869219055841231,-0.018849555921538759,0.07609635538695278,9.4961060833333324,-0.26968287499999999,-2.6723121249999999
1413393215525760512,0.025132741228718346,0.0090757121103705145,0.098436569812480182,9.9537497499999983,-0.065377666666666667,-2.6641399166666666
1413393215530760448,0.00069813170079773186,0.037699111843077518,0.069813170079773182,9.7494445416666657,-0.016344416666666667,-2.9992004583333332
1413393215535760384,-0.0090757121103705145,-0.0013962634015954637,0.069813170079773182,8.6788852500000004,0.057205458333333334,-2.3617682083333333
1413393215540760576,0.0055850536063818549,0.016755160819145562,0.094247779607693802,9.9210609166666668,-0.089894291666666667,-2.6886565416666666
1413393215545760512,0.0013962634015954637,0.047472955654245766,0.10122909661567112,9.9210609166666668,0.11441091666666667,-2.7703786249999998
1413393215550760448,-0.017453292519943295,0.038397243543875248,0.067718774977379978,8.9403959166666649,-0.30237170833333332,-2.4026292499999999
1413393215555760384,0.00069813170079773186,0.0069813170079773184,0.07819075048934597,9.0548068333333322,-0.36774937499999999,-2.6069344583333329
1413393215560760576,0.021642082724729686,0.013962634015954637,0.099832833214075656,9.5287949166666657,0.36774937499999999,-2.7213453750000003
1413393215565760512,-0.019547687622336492,0.023038346126325153,0.066322511575784518,9.4879338749999995,0.25333845833333329,-2.7948952499999997
1413393215570760448,-0.032812189937493394,0.0055850536063818549,0.05375614096142535,8.9730847499999999,-0.36774937499999999,-2.4680069166666665
1413393215575760384,-0.00069813170079773186,-0.0020943951023931952,0.087266462599716474,9.0711512499999998,-0.196133,-2.3699404166666667
1413393215580760576,-0.0055850536063818549,0.0090757121103705145,0.080983277292536876,9.7984777916666665,-0.032688833333333334,-2.8929617499999996
1413393215585760512,-0.023038346126325153,0.013962634015954637,0.065624379874986788,9.1855621666666654,-0.22064962499999999,-2.6314510833333329
1413393215590760448,0.0027925268031909274,0.014660765716752367,0.08168140899333462,9.3244897083333331,-0.55571016666666662,-2.6723121249999999
1413393215595760384,0.025132741228718346,0.036302848441482058,0.094945911308491532,10.231604833333332,-0.024516625,-2.9256505833333333
1413393215600760576,-0.00069813170079773186,0.075398223686155036,0.07609635538695278,9.7657889583333333,0.196133,-2.9174783749999995
1413393215605760512,-0.0097738438111682462,0.059341194567807204,0.068416906678177722,8.5399577083333327,-0.25333845833333329,-2.1983240416666665
1413393215610760448,0.0097738438111682462,0.008377580409572781,0.093549647906896058,9.5860003749999994,0.040861041666666667,-2.852100708333333
1413393215615760384,-0.0062831853071795866,0.05305800926062762,0.095644043009289262,9.3816951666666668,0.34323275000000003,-2.6641399166666666
1413393215620760576,-0.0153588974175501,0.0013962634015954637,0.096342174710086978,8.5644743333333331,-0.21247741666666667,-2.5742456250000001
1413393215625760512,0.01117010721276371,-0.028623399732707,0.11798425743481668,9.7984777916666665,-0.5475379583333333,-2.852100708333333
1413393215630760448,0.014660765716752367,0.033510321638291124,0.11798425743481668,10.010955208333332,0.3350605416666666,-3.0972669583333334
1413393215635760384,0.0020943951023931952,0.048171087355043489,0.10192722831646883,8.8096405833333318,-0.098066500000000001,-2.5415567916666664
1413393215640760576,0.0048869219055841231,-0.049567350756638949,0.097738438111682452,9.1283567083333317,-0.50667691666666659,-2.5660734166666663
1413393215645760512,0.0034906585039886592,0.0041887902047863905,0.076794487087750496,10.574837583333332,0.51484912499999991,-3.2116778749999999
1413393215650760448,-0.01117010721276371,0.05445427266222308,0.07958701389094143,9.1692177499999996,0.25333845833333329,-2.8112396666666668
1413393215655760384,-0.025132741228718346,-0.037699111843077518,0.05305800926062762,8.744262916666667,-0.83356525000000004,-2.2473572916666664
1413393215660760576,-0.013962634015954637,-0.022340214425527419,0.036302848441482058,10.313326916666666,0.196133,-2.7376897916666665
1413393215665760512,0.0020943951023931952,0.041887902047863905,0.07819075048934597,9.3735229583333322,0.0,-2.5987622500000001
1413393215670760448,-0.0062831853071795866,-0.036302848441482058,0.046774823953448029,8.5889909583333335,-0.76818758333333337,-2.827584083333333
1413393215675760384,0.017453292519943295,0.0041887902047863905,0.067020643276582248,9.7903055833333319,0.71098212499999991,-3.1299557916666663
1413393215680760576,0.0153588974175501,0.049567350756638949,0.12077678423800758,8.9567403333333324,0.53119354166666666,-2.7050009583333332
1413393215685760512,-0.02652900463031381,-0.043284165449459372,0.092851516206098328,8.433719,-0.63743225000000003,-3.0318892916666664
1413393215690760448,-0.014660765716752367,-0.018849555921538759,0.090058989402907408,10.051816249999998,0.22064962499999999,-3.2116778749999999
1413393215695760384,0.021642082724729686,0.037000980142279788,0.14660765716752369,9.1692177499999996,0.28602729166666663,-2.5088679583333335
1413393215700760576,-0.0034906585039886592,-0.035604716740684328,0.099134701513277898,8.5481299166666673,-1.1114203333333332,-2.5088679583333335
1413393215705760512,-0.0027925268031909274,-0.057944931166211737,0.062133721370998138,9.594172583333334,0.073549874999999987,-3.3097443750000002
1413393215710760448,0.024434609527920613,0.018151424220741029,0.1096066770252439,9.9537497499999983,0.098066500000000001,-2.7867230416666664
1413393215715760384,-0.016755160819145562,-0.014660765716752367,0.038397243543875248,9.0221180000000007,-0.64560445833333324,-2.6559677083333328
1413393215720760576,-0.016755160819145562,-0.020245819323134219,0.02722713633111154,10.010955208333332,0.46581587499999999,-3.138128
1413393215725760512,0.018151424220741029,0.044680428851054839,0.099134701513277898,9.6105169999999998,-0.34323275000000003,-2.623278875
1413393215730760448,-0.0097738438111682462,0.0041887902047863905,0.045378560551852569,8.8913626666666659,-0.32688833333333334,-2.7703786249999998
1413393215735760384,-0.0076794487087750501,0.022340214425527419,0.072605696882964116,9.1692177499999996,0.94797616666666662,-2.6559677083333328
1413393215740760576,-0.00069813170079773186,0.020943951023931952,0.12636183784438945,9.4879338749999995,-0.16344416666666667,-2.6968287499999999
1413393215745760512,-0.038397243543875248,0.008377580409572781,0.059341194567807204,8.6952296666666662,-0.65377666666666667,-2.7622064166666664
1413393215750760448,-0.008377580409572781,-0.041189770347066175,0.11309733552923257,8.5808187499999988,0.27785508333333331,-2.3454237916666667
1413393215755760384,0.0307177948351002,-0.023736477827122883,0.15987215948268058,10.713765125,-0.7028099166666667,-3.162644625
1413393215760760576,0.0076794487087750501,0.01117010721276371,0.076794487087750496,9.3816951666666668,-0.87442629166666663,-3.0237170833333331
1413393215765760512,0.033510321638291124,-0.032812189937493394,0.12007865253720987,8.5317854999999998,0.69463770833333327,-2.4761791249999998
1413393215770760448,0.044680428851054839,-0.0153588974175501,0.12147491593880534,10.721937333333331,-0.48216029166666663,-3.2933999583333331
1413393215775760384,-0.012566370614359173,0.032114058236695664,0.042586033748661642,8.9649125416666671,0.56388237500000005,-3.0155448749999998
1413393215780760576,-0.0055850536063818549,-0.028623399732707,0.11938052083641214,9.1038400833333331,0.67829329166666663,-2.5088679583333335
1413393215785760512,-0.037699111843077518,0.027925268031909273,0.0307177948351002,10.869037083333334,-0.57205458333333326,-3.4486719166666666
1413393215790760448,-0.037699111843077518,0.066322511575784518,0.020245819323134219,8.482752249999999,0.31871612500000002,-2.3862848333333333
1413393215795760384,0.0062831853071795866,-0.064228116473391328,0.11379546723003027,9.2918008749999998,-0.29419949999999995,-2.5497290000000001
1413393215800760576,-0.019547687622336492,0.057246799465414,0.034906585039886591,10.158054958333333,-0.66194887499999999,-3.2198500833333328
1413393215805760512,0.0034906585039886592,0.046076692252650306,0.047472955654245766,7.5919815416666658,0.67829329166666663,-2.0348798749999997
1413393215810760448,0.036302848441482058,-0.057246799465414,0.13334315485236678,9.5533115416666661,-0.24516625,-2.8766173333333334
1413393215815760384,-0.0062831853071795866,0.017453292519943295,0.07749261878854824,9.0629790416666669,-0.32688833333333334,-2.8684451249999996
1413393215820760576,0.0097738438111682462,-0.021642082724729686,0.11728612573401893,8.033280791666666,0.91528733333333334,-2.1492907916666666
1413393215825760512,0.020943951023931952,-0.0034906585039886592,0.1270599695451872,10.836348249999999,-0.76818758333333337,-3.1217835833333334
1413393215830760448,-0.0097738438111682462,0.01117010721276371,0.085870199198121014,9.0221180000000007,-0.073549874999999987,-2.5170401666666664
1413393215835760384,0.0062831853071795866,-0.057944931166211737,0.11239920382843484,9.9537497499999983,0.16344416666666667,-2.7867230416666664
1413393215840760576,-0.028623399732707,0.039793506945470715,0.013962634015954637,10.084505083333333,-0.38409379166666668,-3.2280222916666665
1413393215845760512,-0.024434609527920613,0.056548667764616284,0.031415926535897934,9.0793234583333327,0.24516625,-2.4189736666666666
1413393215850760448,-0.0013962634015954637,0.049567350756638949,0.089360857702109678,10.239777041666667,-0.48216029166666663,-2.7622064166666664
1413393215855760384,-0.028623399732707,0.074700091985357306,0.055152404363020817,9.2182509999999986,-0.3105439166666667,-3.0564059166666664
1413393215860760576,0.0090757121103705145,0.038397243543875248,0.097738438111682452,8.1885527499999995,0.3350605416666666,-2.1492907916666666
1413393215865760512,0.019547687622336492,0.037000980142279788,0.10332349171806432,9.0466346249999994,-0.81722083333333329,-2.1738074166666665
1413393215870760448,0.0090757121103705145,0.016057029118347832,0.089360857702109678,8.7769517500000003,-0.073549874999999987,-2.7948952499999997
1413393215875760384,0.020245819323134219,-0.036302848441482058,0.13055062804917586,9.5124504999999999,0.56388237500000005,-2.6559677083333328
1413393215880760576,-0.022340214425527419,-0.023736477827122883,0.074700091985357306,9.7657889583333333,-0.065377666666666667,-3.2035056666666666
1413393215885760512,-0.018151424220741029,0.022340214425527419,0.097738438111682452,9.6350336250000002,0.40043820833333332,-3.0809225416666663
1413393215890760448,-0.0055850536063818549,0.02583087292951608,0.075398223686155036,9.7494445416666657,-0.68646550000000006,-2.0675687083333334
1413393215895760384,-0.0055850536063818549,0.038397243543875248,0.055850536063818547,9.9292331249999997,-0.46581587499999999,-3.4241552916666667
1413393215900760576,0.023736477827122883,0.032812189937493394,0.087266462599716474,10.010955208333332,0.057205458333333334,-2.6723121249999999
1413393215905760512,-0.0055850536063818549,0.02652900463031381,0.045378560551852569,9.2100787916666658,0.04903325,-2.5905900416666663
1413393215910760448,-0.010471975511965976,0.072605696882964116,0.034906585039886591,9.2754564583333323,0.196133,-3.0890947499999997
1413393215915760384,-0.010471975511965976,0.030019663134302467,0.068416906678177722,9.0302902083333318,-0.15527195833333335,-1.5282029583333332
1413393215920760576,-0.021642082724729686,-0.012566370614359173,0.072605696882964116,8.9812569583333328,-0.081722083333333334,-3.0318892916666664
1413393215925760512,0.0,0.013264502315156905,0.072605696882964116,9.1447011249999992,0.016344416666666667,-2.9501672083333332
1413393215930760448,0.0013962634015954637,-0.016755160819145562,0.085870199198121014,8.834157208333334,-0.14709974999999997,-2.378112625
1413393215935760384,0.0069813170079773184,-0.016755160819145562,0.11868238913561441,9.8475110416666656,-0.065377666666666667,-3.7101825833333333
1413393215940760576,0.020943951023931952,0.030019663134302467,0.14590952546672595,9.6513780416666659,-0.17161637500000002,-1.9368133750000001
1413393215945760512,0.01117010721276371,0.031415926535897934,0.143116998663535,9.4389006250000005,-0.089894291666666667,-3.3015721666666664
1413393215950760448,0.016057029118347832,0.059341194567807204,0.12356931104119852,9.822994416666667,0.13075533333333333,-3.2607111249999998
1413393215955760384,-0.011868238913561441,0.025132741228718346,0.066322511575784518,8.9322237083333338,0.016344416666666667,-1.6262694583333333
1413393215960760576,-0.016057029118347832,0.013962634015954637,0.043284165449459372,9.5614837499999989,-0.11441091666666667,-3.8409379166666664
1413393215965760512,-0.018849555921538759,0.047472955654245766,0.010471975511965976,9.422556208333333,-0.122583125,-2.2473572916666664
1413393215970760448,-0.034906585039886591,-0.014660765716752367,0.013962634015954637,8.8750182500000001,0.14709974999999997,-2.7376897916666665
1413393215975760384,-0.011868238913561441,0.05166174585903216,0.05375614096142535,10.109021708333332,-0.17978858333333333,-4.2495483333333333
1413393215980760576,0.0027925268031909274,0.041189770347066175,0.090058989402907408,8.6870574583333333,-0.44129924999999998,-1.7815414166666665
1413393215985760512,0.016057029118347832,0.012566370614359173,0.1165879940332212,9.4879338749999995,-0.42495483333333334,-3.6284604999999996
1413393215990760448,0.024434609527920613,0.090058989402907408,0.099134701513277898,9.8393388333333327,0.0081722083333333334,-2.0185354583333335
1413393215995760384,0.0069813170079773184,0.0090757121103705145,0.11588986233242347,8.2866192499999993,0.4494714583333333,-2.2064962499999998
1413393216000760576,-0.0034906585039886592,0.02583087292951608,0.11170107212763709,10.533976541666666,-0.22064962499999999,-3.9880376666666666
1413393216005760512,-0.018849555921538759,0.0307177948351002,0.08237954069413235,8.6625408333333329,-0.10623870833333333,-1.1604535833333331
1413393216010760448,-0.010471975511965976,-0.023736477827122883,0.095644043009289262,9.1038400833333331,0.122583125,-3.5630828333333331
1413393216015760384,0.0020943951023931952,0.024434609527920613,0.075398223686155036,9.8148222083333323,-0.87442629166666663,-2.288218333333333
1413393216020760576,0.010471975511965976,-0.012566370614359173,0.08307767239493008,9.6350336250000002,-0.21247741666666667,-2.0757409166666667
1413393216025760512,0.031415926535897934,0.05375614096142535,0.10122909661567112,10.329671333333332,-0.11441091666666667,-4.126965208333333
1413393216030760448,0.018849555921538759,0.060737457969402671,0.07749261878854824,8.6053353749999992,-0.016344416666666667,-1.2176590416666666
1413393216035760384,0.0048869219055841231,0.013264502315156905,0.092153384505300612,9.2182509999999986,0.51484912499999991,-3.3179165833333331
1413393216040760576,-0.011868238913561441,0.08307767239493008,0.061435589670200401,9.6595502499999988,-0.20430520833333332,-1.7733692083333334
1413393216045760512,-0.041887902047863905,-0.0062831853071795866,0.024434609527920613,8.8423294166666651,0.46581587499999999,-2.582417833333333
1413393216050760448,-0.034208453339088861,0.05375614096142535,0.028623399732707,9.6595502499999988,-0.057205458333333334,-3.5303939999999998
1413393216055760384,-0.033510321638291124,-0.0097738438111682462,0.021642082724729686,8.7687795416666656,-0.47398808333333331,-1.3647587916666666
1413393216060760576,-0.0027925268031909274,0.044680428851054839,0.062133721370998138,10.329671333333332,-0.32688833333333334,-4.2005150833333333
1413393216065760512,0.032114058236695664,0.070511301780570912,0.08377580409572781,8.6707130416666658,-0.52302133333333334,-2.083913125
1413393216070760448,0.0307177948351002,-0.016755160819145562,0.10471975511965977,9.4634172499999991,0.49850470833333332,-2.9583394166666666
1413393216075760384,0.023038346126325153,0.088662726001311934,0.114493598930828,9.0548068333333322,0.48216029166666663,-3.4404997083333333
1413393216080760576,-0.016057029118347832,-0.037699111843077518,0.075398223686155036,8.1803805416666648,0.30237170833333332,-1.4219642499999998
1413393216085760512,-0.029321531433504733,0.029321531433504733,0.087964594300514204,10.607526416666667,0.43312704166666666,-4.4701979583333324
1413393216090760448,-0.033510321638291124,0.032114058236695664,0.076794487087750496,8.1967249583333324,-0.38409379166666668,-1.7488525833333333
1413393216095760384,-0.02652900463031381,-0.059341194567807204,0.07958701389094143,9.2672842499999994,-0.13075533333333333,-2.7948952499999997
1413393216100760576,-0.0020943951023931952,0.07958701389094143,0.086568330898918744,9.3490063333333335,-0.41678262500000002,-2.1983240416666665
1413393216105760512,0.0013962634015954637,-0.063529984772593598,0.078888882190143686,9.3244897083333331,-0.040861041666666667,-2.3699404166666667
1413393216110760448,0.0048869219055841231,0.11170107212763709,0.071907565182166372,10.844520458333331,-0.58022679166666657,-4.0615875416666665
1413393216115760384,0.0153588974175501,0.031415926535897934,0.062831853071795868,8.7687795416666656,-0.48216029166666663,-1.5282029583333332
1413393216120760576,0.014660765716752367,0.071209433481368656,0.061435589670200401,10.738281749999999,0.15527195833333335,-3.9798654583333328
1413393216125760512,0.020245819323134219,0.10402162341886204,0.07819075048934597,7.7472535000000002,-0.098066500000000001,-1.6753027083333332
1413393216130760448,0.008377580409572781,-0.049567350756638949,0.069115038378975438,9.5451393333333332,0.098066500000000001,-2.132946375
1413393216135760384,0.008377580409572781,0.12356931104119852,0.07819075048934597,10.386876791666666,-0.17161637500000002,-3.7837324583333327
1413393216140760576,-0.008377580409572781,-0.037699111843077518,0.086568330898918744,7.763597916666666,0.35957716666666667,-1.7243359583333333
1413393216145760512,-0.0307177948351002,0.044680428851054839,0.089360857702109678,11.408402833333332,0.14709974999999997,-4.4293369166666663
1413393216150760448,-0.018849555921538759,0.10332349171806432,0.11519173063162574,8.0659696249999993,-0.15527195833333335,-1.8224024583333331
1413393216155760384,-0.0090757121103705145,-0.071907565182166372,0.12636183784438945,9.5042782916666653,0.0,-3.4731885416666666
1413393216160760576,-0.0020943951023931952,0.114493598930828,0.11588986233242347,8.7687795416666656,-0.53936574999999998,-2.3127349583333334
1413393216165760512,0.0041887902047863905,-0.095644043009289262,0.087266462599716474,9.6186892083333326,-0.0081722083333333334,-2.2555295000000002
1413393216170760448,0.012566370614359173,0.072605696882964116,0.073303828583761846,11.212269833333332,-0.87442629166666663,-3.9635210416666666
1413393216175760384,0.019547687622336492,0.0041887902047863905,0.057246799465414,7.4612262083333336,-0.016344416666666667,-1.2748645000000001
1413393216180760576,0.013962634015954637,-0.0034906585039886592,0.057944931166211737,11.441091666666667,0.4494714583333333,-3.67749375
1413393216185760512,0.0034906585039886592,0.1228711793404008,0.030019663134302467,8.9485681249999995,0.073549874999999987,-2.4271458749999999
1413393216190760448,-0.0048869219055841231,-0.07819075048934597,0.074001960284559576,8.8995348749999987,0.69463770833333327,-2.6396232916666666
1413393216195760384,-0.029321531433504733,0.092851516206098328,0.046076692252650306,10.215260416666666,-0.032688833333333334,-3.4159830833333329
1413393216200760576,-0.035604716740684328,-0.055850536063818547,0.094247779607693802,7.3631597083333329,0.53936574999999998,-1.5445473749999998
1413393216205760512,-0.043284165449459372,-0.040491638646268438,0.091455252804502868,11.375713999999999,-0.66194887499999999,-3.5140495833333332
1413393216210760448,-0.020943951023931952,0.031415926535897934,0.096342174710086978,8.0496252083333317,0.14709974999999997,-1.6916471249999998
1413393216215760384,0.0034906585039886592,-0.1075122819228507,0.091455252804502868,10.844520458333331,0.016344416666666667,-3.5549106249999998
1413393216220760576,0.0055850536063818549,0.05305800926062762,0.087266462599716474,8.6870574583333333,-0.17978858333333333,-1.8469190833333331
1413393216225760512,0.011868238913561441,-0.11379546723003027,0.10611601852125524,9.3571785416666664,0.51484912499999991,-2.7050009583333332
1413393216230760448,0.012566370614359173,0.030019663134302467,0.08168140899333462,10.174399375,-0.60474341666666664,-2.8439284999999996
1413393216235760384,0.02652900463031381,-0.062133721370998138,0.11170107212763709,8.0169363750000002,0.43312704166666666,-2.378112625
1413393216240760576,0.018849555921538759,-0.0027925268031909274,0.050963614158234416,10.329671333333332,-0.67829329166666663,-2.9910282499999998
1413393216245760512,0.021642082724729686,0.019547687622336492,0.08307767239493008,8.1068306666666654,0.47398808333333331,-1.9695022083333333
1413393216250760448,0.0034906585039886592,-0.066322511575784518,0.07749261878854824,10.182571583333333,0.25333845833333329,-2.8929617499999996
1413393216255760384,-0.018849555921538759,0.032114058236695664,0.059341194567807204,9.831166624999998,-0.040861041666666667,-2.6396232916666666
1413393216260760576,-0.018151424220741029,-0.060039326268604934,0.10821041362364843,8.9894291666666657,0.62108783333333339,-2.7785508333333331
1413393216265760512,-0.032812189937493394,-0.021642082724729686,0.055152404363020817,9.6513780416666659,-0.80904862499999997,-2.8847895416666667
1413393216270760448,0.0062831853071795866,-0.060737457969402671,0.15498523757709648,8.7279184999999995,0.04903325,-2.8602729166666667
1413393216275760384,0.01117010721276371,-0.050963614158234416,0.075398223686155036,9.7903055833333319,-1.1195925416666666,-2.8766173333333334
1413393216280760576,0.02652900463031381,-0.043284165449459372,0.14102260356114182,8.8586738333333326,0.69463770833333327,-3.0727503333333335
1413393216285760512,0.0034906585039886592,-0.062133721370998138,0.074001960284559576,9.7085834999999996,-0.27785508333333331,-2.7295175833333332
1413393216290760448,-0.0153588974175501,0.0020943951023931952,0.074700091985357306,9.4062117916666654,0.23699404166666665,-3.4404997083333333
1413393216295760384,0.0097738438111682462,0.0069813170079773184,0.090757121103705138,8.5644743333333331,-0.28602729166666663,-2.1819796249999999
1413393216300760576,-0.00069813170079773186,-0.023736477827122883,0.042586033748661642,9.4389006250000005,-0.6292600416666666,-2.7948952499999997
1413393216305760512,0.049567350756638949,0.018849555921538759,0.14590952546672595,9.3653507499999993,0.50667691666666659,-2.9174783749999995
1413393216310760448,0.013962634015954637,0.0020943951023931952,0.055152404363020817,9.6268614166666655,-0.11441091666666667,-2.5905900416666663
1413393216315760384,0.008377580409572781,0.039095375244672985,0.15777776438028737,9.1855621666666654,1.299381125,-3.1136113750000001
1413393216320760576,-0.031415926535897934,-0.020245819323134219,0.07609635538695278,8.9567403333333324,-0.25333845833333329,-2.6723121249999999
1413393216325760512,-0.05166174585903216,0.012566370614359173,0.087266462599716474,9.3490063333333335,0.53936574999999998,-3.4323274999999995
1413393216330760448,-0.019547687622336492,0.013264502315156905,0.050963614158234416,8.5399577083333327,-0.88259849999999995,-2.0267076666666664
1413393216335760384,-0.017453292519943295,-0.0034906585039886592,0.074700091985357306,9.4470728333333334,-0.27785508333333331,-3.8491101249999997
1413393216340760576,0.018849555921538759,0.022340214425527419,0.11239920382843484,8.253930416666666,-0.073549874999999987,-1.9695022083333333
1413393216345760512,-0.020245819323134219,-0.07749261878854824,0.067718774977379978,9.7903055833333319,-0.32688833333333334,-3.3751220416666667
1413393216350760448,0.008377580409572781,0.037000980142279788,0.13823007675795088,9.7984777916666665,0.56388237500000005,-3.1544724166666662
1413393216355760384,-0.024434609527920613,-0.060737457969402671,0.065624379874986788,8.9812569583333328,-0.7436709583333333,-2.4516624999999999
1413393216360760576,0.0048869219055841231,0.050963614158234416,0.1075122819228507,10.288810291666666,-0.016344416666666667,-4.037070916666667
1413393216365760512,0.013264502315156905,0.0069813170079773184,0.048869219055841226,7.9188698749999995,-0.98883720833333322,-1.6507860833333332
1413393216370760448,0.02652900463031381,0.0027925268031909274,0.072605696882964116,11.530985958333332,-0.16344416666666667,-4.5028867916666666
1413393216375760384,0.035604716740684328,0.12356931104119852,0.074001960284559576,8.2866192499999993,0.3350605416666666,-1.4056198333333334
1413393216380760576,-0.012566370614359173,-0.037000980142279788,0.10890854532444616,9.7984777916666665,0.50667691666666659,-4.1514818333333334
1413393216385760512,-0.011868238913561441,0.07609635538695278,0.098436569812480182,8.1476917083333333,-0.14709974999999997,-1.5445473749999998
1413393216390760448,-0.0307177948351002,-0.11868238913561441,0.1075122819228507,9.242767624999999,-0.37592158333333331,-3.2443667083333327
1413393216395760384,0.014660765716752367,0.034208453339088861,0.10402162341886204,9.9537497499999983,-0.62108783333333339,-2.4353180833333332
1413393216400760576,-0.0069813170079773184,-0.12985249634837812,0.037000980142279788,8.3356525000000001,-0.57205458333333326,-1.9368133750000001
1413393216405760512,0.030019663134302467,-0.043982297150257102,0.090058989402907408,11.081514499999999,0.040861041666666667,-3.7919046666666665
1413393216410760448,-0.0055850536063818549,-0.052359877559829883,0.023736477827122883,8.9567403333333324,0.11441091666666667,-1.3811032083333332
1413393216415760384,0.0041887902047863905,-0.037699111843077518,0.090757121103705138,12.184762624999999,-0.040861041666666667,-4.7153642083333329
1413393216420760576,-0.018151424220741029,0.072605696882964116,-0.0055850536063818549,9.3081452916666674,-0.10623870833333333,-0.90711512499999991
1413393216425760512,-0.0090757121103705145,0.016755160819145562,0.064228116473391328,10.950759166666666,0.42495483333333334,-4.2985815833333332
1413393216430760448,-0.012566370614359173,0.12147491593880534,0.0069813170079773184,7.6410147916666666,-0.13892754166666665,-1.0378704583333334
1413393216435760384,-0.018151424220741029,-0.0090757121103705145,0.091455252804502868,9.7494445416666657,0.122583125,-3.6039438749999997
1413393216440760576,0.016057029118347832,0.12845623294678266,0.05375614096142535,8.8178127916666664,-0.30237170833333332,-1.7570247916666666
1413393216445760512,0.008377580409572781,-0.013264502315156905,0.14940018397071461,9.2019065833333329,0.89894291666666659,-3.8981433750000001
1413393216450760448,0.0034906585039886592,0.1228711793404008,0.10611601852125524,9.1855621666666654,-0.38409379166666668,-2.5006957499999998
1413393216455760384,-0.041887902047863905,-0.078888882190143686,0.07749261878854824,7.1016490416666658,0.67829329166666663,-2.3535959999999996
1413393216460760576,-0.020943951023931952,0.0,0.067718774977379978,9.332661916666666,-0.53936574999999998,-2.9174783749999995
