#timestamp [ns],w_RS_S_x [rad s^-1],w_RS_S_y [rad s^-1],w_RS_S_z [rad s^-1],a_RS_S_x [m s^-2],a_RS_S_y [m s^-2],a_RS_S_z [m s^-2]
1403638127270096896,-0.010471975511965976,0.01117010721276371,0.065624379874986788,8.9567403333333324,0.081722083333333334,-3.9308322083333329
1403638127275097088,-0.012566370614359173,0.0153588974175501,0.059341194567807204,9.0956678750000002,0.04903325,-3.947176625
1403638127280097024,-0.01117010721276371,0.0153588974175501,0.059341194567807204,9.0711512499999998,-0.040861041666666667,-3.9553488333333329
1403638127285096960,-0.011868238913561441,0.021642082724729686,0.048171087355043489,9.2019065833333329,-0.089894291666666667,-3.9962098749999995
1403638127290096896,-0.01117010721276371,0.02722713633111154,0.050963614158234416,9.0057735833333332,-0.16344416666666667,-3.947176625
1403638127295097088,-0.0062831853071795866,0.034208453339088861,0.05305800926062762,8.9649125416666671,-0.17978858333333333,-3.9308322083333329
1403638127300097024,-0.0069813170079773184,0.030019663134302467,0.058643062867009467,8.7279184999999995,-0.196133,-3.8736267500000001
1403638127305096960,-0.0069813170079773184,0.019547687622336492,0.061435589670200401,8.7769517500000003,-0.17978858333333333,-3.8736267500000001
1403638127310096896,-0.013962634015954637,0.01117010721276371,0.067718774977379978,8.6952296666666662,-0.24516625,-3.8491101249999997
1403638127315097088,-0.014660765716752367,0.010471975511965976,0.073303828583761846,8.8423294166666651,-0.26151066666666667,-3.8981433750000001
1403638127320097024,-0.014660765716752367,0.0076794487087750501,0.084473935796525554,8.8586738333333326,-0.40043820833333332,-3.8654545416666664
1403638127325096960,-0.008377580409572781,0.013962634015954637,0.092851516206098328,9.0874956666666655,-0.392266,-3.92266
1403638127330096896,0.0020943951023931952,0.016755160819145562,0.10471975511965977,8.9649125416666671,-0.43312704166666666,-3.97169325
1403638127335097088,0.017453292519943295,0.024434609527920613,0.11030480872604163,9.1038400833333331,-0.34323275000000003,-3.97169325
1403638127340097024,0.018151424220741029,0.028623399732707,0.10471975511965977,8.8913626666666659,-0.26968287499999999,-3.9308322083333329
1403638127345096960,0.020943951023931952,0.021642082724729686,0.10192722831646883,8.9485681249999995,-0.04903325,-3.97169325
1403638127350096896,0.0153588974175501,0.016057029118347832,0.1054178868204575,8.8259849999999993,0.04903325,-3.9553488333333329
1403638127355097088,0.010471975511965976,0.014660765716752367,0.10821041362364843,8.8586738333333326,0.098066500000000001,-3.9635210416666666
1403638127360097024,0.0020943951023931952,0.0076794487087750501,0.1054178868204575,8.7769517500000003,0.098066500000000001,-3.92266
1403638127365096960,0.0,0.0034906585039886592,0.10471975511965977,8.9976013749999986,0.13892754166666665,-3.906315583333333
1403638127370096896,-0.0048869219055841231,0.0020943951023931952,0.097040306410884708,8.9812569583333328,0.065377666666666667,-3.9144877916666663
1403638127375097088,-0.0090757121103705145,0.0013962634015954637,0.085870199198121014,9.1201845000000006,0.081722083333333334,-3.92266
1403638127380097024,-0.0090757121103705145,0.0048869219055841231,0.074700091985357306,9.0302902083333318,0.016344416666666667,-3.857282333333333
1403638127385096960,-0.0048869219055841231,0.0055850536063818549,0.066322511575784518,9.0874956666666655,0.016344416666666667,-3.8654545416666664
1403638127390096896,-0.0041887902047863905,0.013264502315156905,0.060039326268604934,9.0302902083333318,-0.016344416666666667,-3.906315583333333
1403638127395097088,-0.0034906585039886592,0.014660765716752367,0.057246799465414,8.9894291666666657,-0.016344416666666667,-3.9635210416666666
1403638127400097024,0.00069813170079773186,0.019547687622336492,0.048171087355043489,8.9730847499999999,0.04903325,-3.97169325
1403638127405096960,-0.0027925268031909274,0.023736477827122883,0.045378560551852569,9.0629790416666669,0.13075533333333333,-4.0697597499999993
1403638127410096896,-0.0055850536063818549,0.0307177948351002,0.05166174585903216,8.9976013749999986,0.11441091666666667,-4.0861041666666669
1403638127415097088,-0.010471975511965976,0.029321531433504733,0.052359877559829883,8.9649125416666671,0.089894291666666667,-4.1351374166666668
1403638127420097024,-0.013264502315156905,0.032114058236695664,0.060039326268604934,8.834157208333334,0.016344416666666667,-4.0207264999999994
1403638127425096960,-0.0153588974175501,0.02652900463031381,0.059341194567807204,8.8995348749999987,-0.057205458333333334,-3.9962098749999995
1403638127430096896,-0.018849555921538759,0.0307177948351002,0.061435589670200401,8.834157208333334,-0.13892754166666665,-4.0125542916666666
1403638127435097088,-0.01117010721276371,0.033510321638291124,0.074001960284559576,8.9567403333333324,-0.18796079166666665,-4.0288987083333332
1403638127440097024,-0.0034906585039886592,0.041189770347066175,0.076794487087750496,8.9649125416666671,-0.26968287499999999,-4.0534153333333327
1403638127445096960,0.0020943951023931952,0.045378560551852569,0.08237954069413235,9.0874956666666655,-0.24516625,-4.0207264999999994
1403638127450096896,0.0048869219055841231,0.052359877559829883,0.080285145591739146,9.1120122916666659,-0.16344416666666667,-3.9962098749999995
1403638127455097088,0.01117010721276371,0.060039326268604934,0.087266462599716474,9.0221180000000007,-0.098066500000000001,-3.8981433750000001
1403638127460097024,0.01117010721276371,0.065624379874986788,0.090757121103705138,8.8096405833333318,-0.10623870833333333,-3.8082490833333327
1403638127465096960,0.0048869219055841231,0.048869219055841226,0.094945911308491532,8.8178127916666664,-0.04903325,-3.7919046666666665
1403638127470096896,-0.0062831853071795866,0.041189770347066175,0.092851516206098328,8.8586738333333326,0.0,-3.7837324583333327
1403638127475097088,-0.019547687622336492,0.034906585039886591,0.092153384505300612,8.8995348749999987,-0.089894291666666667,-3.7673880416666665
1403638127480097024,-0.023038346126325153,0.02583087292951608,0.088662726001311934,8.8259849999999993,-0.22064962499999999,-3.6938381666666662
1403638127485096960,-0.017453292519943295,0.010471975511965976,0.089360857702109678,8.8586738333333326,-0.31871612500000002,-3.6529771249999996
1403638127490096896,-0.014660765716752367,0.0076794487087750501,0.080983277292536876,8.9240514999999991,-0.38409379166666668,-3.6693215416666662
1403638127495097088,-0.0034906585039886592,0.0027925268031909274,0.080983277292536876,8.9158792916666663,-0.43312704166666666,-3.7183547916666662
1403638127500097024,0.012566370614359173,0.012566370614359173,0.073303828583761846,9.0466346249999994,-0.34323275000000003,-3.8327657083333331
1403638127505096960,0.017453292519943295,0.013962634015954637,0.076794487087750496,8.9649125416666671,-0.22882183333333334,-3.8654545416666664
1403638127510096896,0.018849555921538759,0.008377580409572781,0.071209433481368656,9.0548068333333322,-0.032688833333333334,-4.0288987083333332
1403638127515097088,0.016057029118347832,0.016057029118347832,0.07958701389094143,9.0057735833333332,0.024516625,-4.0861041666666669
1403638127520097024,0.01117010721276371,0.012566370614359173,0.08307767239493008,8.9077070833333334,0.098066500000000001,-4.0942763749999997
1403638127525096960,0.011868238913561441,0.010471975511965976,0.087266462599716474,8.8505016249999997,0.016344416666666667,-4.0125542916666666
1403638127530096896,0.0097738438111682462,0.0027925268031909274,0.075398223686155036,8.8096405833333318,0.089894291666666667,-3.881798958333333
1403638127535097088,0.00069813170079773186,-0.0069813170079773184,0.074700091985357306,8.9240514999999991,0.15527195833333335,-4.0043820833333328
1403638127540097024,-0.011868238913561441,0.0027925268031909274,0.076794487087750496,9.0221180000000007,0.196133,-4.0043820833333328
1403638127545096960,-0.020943951023931952,0.0,0.086568330898918744,8.9730847499999999,0.057205458333333334,-3.9635210416666666
1403638127550096896,-0.023038346126325153,0.0076794487087750501,0.085172067497323284,9.0793234583333327,-0.14709974999999997,-3.857282333333333
1403638127555097088,-0.0153588974175501,0.00069813170079773186,0.086568330898918744,8.9240514999999991,-0.3350605416666666,-3.7755602499999998
1403638127560097024,0.0,0.012566370614359173,0.071907565182166372,9.2019065833333329,-0.36774937499999999,-3.8654545416666664
1403638127565096960,0.012566370614359173,0.018151424220741029,0.060737457969402671,9.0302902083333318,-0.28602729166666663,-3.8654545416666664
1403638127570096896,0.014660765716752367,0.02652900463031381,0.05305800926062762,8.9403959166666649,-0.065377666666666667,-3.9553488333333329
1403638127575097088,0.012566370614359173,0.018151424220741029,0.064228116473391328,8.7606073333333327,-0.024516625,-3.9553488333333329
1403638127580097024,0.0041887902047863905,0.013264502315156905,0.073303828583761846,8.7279184999999995,0.0081722083333333334,-3.9635210416666666
1403638127585096960,-0.00069813170079773186,0.0013962634015954637,0.08168140899333462,8.7606073333333327,-0.089894291666666667,-3.9798654583333328
1403638127590096896,-0.0041887902047863905,0.0041887902047863905,0.07749261878854824,8.9322237083333338,-0.040861041666666667,-4.0534153333333327
1403638127595097088,-0.0069813170079773184,0.0,0.085870199198121014,8.9077070833333334,-0.13892754166666665,-3.9962098749999995
1403638127600097024,-0.00069813170079773186,0.0062831853071795866,0.07958701389094143,9.1038400833333331,-0.13892754166666665,-4.037070916666667
1403638127605096960,0.00069813170079773186,0.0076794487087750501,0.08307767239493008,8.9976013749999986,-0.16344416666666667,-3.9635210416666666
1403638127610096896,0.0090757121103705145,0.017453292519943295,0.084473935796525554,9.0793234583333327,-0.18796079166666665,-3.9635210416666666
1403638127615097088,0.014660765716752367,0.019547687622336492,0.090058989402907408,8.9158792916666663,-0.098066500000000001,-3.9390044166666667
1403638127620097024,0.020245819323134219,0.02722713633111154,0.084473935796525554,9.0302902083333318,-0.016344416666666667,-3.97169325
1403638127625096960,0.0153588974175501,0.02652900463031381,0.078888882190143686,8.8750182500000001,0.040861041666666667,-3.947176625
1403638127630096896,0.008377580409572781,0.030019663134302467,0.071209433481368656,8.9485681249999995,0.16344416666666667,-4.037070916666667
1403638127635097088,-0.0020943951023931952,0.023736477827122883,0.068416906678177722,8.834157208333334,0.18796079166666665,-3.9635210416666666
1403638127640097024,-0.0090757121103705145,0.021642082724729686,0.061435589670200401,8.9812569583333328,0.23699404166666665,-3.9880376666666666
1403638127645096960,-0.013962634015954637,0.017453292519943295,0.062831853071795868,8.8750182500000001,0.081722083333333334,-3.8899711666666663
1403638127650096896,-0.018849555921538759,0.012566370614359173,0.05445427266222308,9.0629790416666669,-0.024516625,-3.9390044166666667
1403638127655097088,-0.016755160819145562,0.0153588974175501,0.052359877559829883,8.9730847499999999,-0.20430520833333332,-3.947176625
1403638127660097024,-0.013962634015954637,0.018151424220741029,0.044680428851054839,9.0384624166666665,-0.27785508333333331,-3.9308322083333329
1403638127665096960,-0.0055850536063818549,0.028623399732707,0.05166174585903216,8.8750182500000001,-0.28602729166666663,-3.881798958333333
1403638127670096896,-0.00069813170079773186,0.030019663134302467,0.058643062867009467,8.9812569583333328,-0.17978858333333333,-3.9553488333333329
1403638127675097088,0.0020943951023931952,0.037000980142279788,0.069813170079773182,8.9158792916666663,-0.20430520833333332,-3.9553488333333329
1403638127680097024,-0.0097738438111682462,0.034906585039886591,0.072605696882964116,8.9812569583333328,-0.122583125,-3.9553488333333329
1403638127685096960,-0.010471975511965976,0.037000980142279788,0.085172067497323284,8.8014683749999989,-0.29419949999999995,-3.947176625
1403638127690096896,-0.0062831853071795866,0.034906585039886591,0.094247779607693802,8.9322237083333338,-0.31871612500000002,-3.9308322083333329
1403638127695097088,0.0013962634015954637,0.032812189937493394,0.10402162341886204,8.744262916666667,-0.35957716666666667,-3.8899711666666663
1403638127700097024,0.008377580409572781,0.023038346126325153,0.10122909661567112,8.8668460416666655,-0.27785508333333331,-3.906315583333333
1403638127705096960,0.0153588974175501,0.019547687622336492,0.10471975511965977,8.7524351249999999,-0.17978858333333333,-3.881798958333333
1403638127710096896,0.0153588974175501,0.008377580409572781,0.099832833214075656,8.8014683749999989,-0.089894291666666667,-3.8164212916666664
1403638127715097088,0.0048869219055841231,0.00069813170079773186,0.094247779607693802,8.8423294166666651,-0.065377666666666667,-3.7673880416666665
1403638127720097024,0.0041887902047863905,0.0,0.094247779607693802,9.0384624166666665,0.057205458333333334,-3.881798958333333
1403638127725096960,0.00069813170079773186,0.0090757121103705145,0.092153384505300612,9.1120122916666659,0.032688833333333334,-3.8899711666666663
1403638127730096896,-0.0048869219055841231,0.019547687622336492,0.090058989402907408,9.2672842499999994,0.081722083333333334,-3.906315583333333
1403638127735097088,-0.0041887902047863905,0.025132741228718346,0.087964594300514204,9.0548068333333322,0.016344416666666667,-3.8899711666666663
1403638127740097024,-0.00069813170079773186,0.022340214425527419,0.078888882190143686,9.1120122916666659,-0.0081722083333333334,-3.92266
1403638127745096960,-0.00069813170079773186,0.02652900463031381,0.071209433481368656,8.9240514999999991,0.0,-3.9390044166666667
1403638127750096896,-0.0041887902047863905,0.021642082724729686,0.065624379874986788,8.8913626666666659,0.032688833333333334,-3.9880376666666666
1403638127755097088,-0.0020943951023931952,0.019547687622336492,0.060039326268604934,8.7279184999999995,-0.04903325,-3.9553488333333329
1403638127760097024,-0.0027925268031909274,0.013962634015954637,0.058643062867009467,8.8259849999999993,0.0,-4.037070916666667
1403638127765096960,-0.0034906585039886592,0.0097738438111682462,0.060039326268604934,8.793296166666666,-0.032688833333333334,-4.037070916666667
1403638127770096896,-0.0041887902047863905,0.0055850536063818549,0.067020643276582248,8.9730847499999999,-0.016344416666666667,-4.0452431249999998
1403638127775097088,-0.0076794487087750501,0.008377580409572781,0.074700091985357306,9.0384624166666665,-0.032688833333333334,-4.037070916666667
1403638127780097024,-0.0062831853071795866,0.010471975511965976,0.07819075048934597,9.1365289166666663,-0.11441091666666667,-4.037070916666667
1403638127785096960,-0.0076794487087750501,0.020943951023931952,0.078888882190143686,9.0221180000000007,-0.15527195833333335,-3.947176625
1403638127790096896,-0.0048869219055841231,0.02652900463031381,0.087266462599716474,9.0139457916666661,-0.24516625,-3.947176625
1403638127795097088,-0.0027925268031909274,0.033510321638291124,0.090058989402907408,8.8995348749999987,-0.26968287499999999,-3.9144877916666663
1403638127800097024,0.00069813170079773186,0.0307177948351002,0.091455252804502868,8.9812569583333328,-0.24516625,-3.9144877916666663
1403638127805096960,0.0,0.031415926535897934,0.090757121103705138,8.8586738333333326,-0.196133,-3.881798958333333
1403638127810096896,0.0013962634015954637,0.023736477827122883,0.092153384505300612,8.834157208333334,-0.17161637500000002,-3.8736267500000001
1403638127815097088,0.0034906585039886592,0.024434609527920613,0.092851516206098328,8.744262916666667,-0.18796079166666665,-3.8899711666666663
1403638127820097024,0.0055850536063818549,0.017453292519943295,0.099832833214075656,8.8995348749999987,-0.16344416666666667,-3.9144877916666663
1403638127825096960,0.0062831853071795866,0.020943951023931952,0.092851516206098328,8.8586738333333326,-0.04903325,-3.8981433750000001
1403638127830096896,0.0048869219055841231,0.013264502315156905,0.096342174710086978,8.883190458333333,0.032688833333333334,-3.947176625
1403638127835097088,0.0027925268031909274,0.01117010721276371,0.094945911308491532,8.9812569583333328,0.073549874999999987,-3.9635210416666666
1403638127840097024,0.0020943951023931952,0.014660765716752367,0.089360857702109678,9.1447011249999992,0.057205458333333334,-3.9880376666666666
1403638127845096960,-0.0048869219055841231,0.02583087292951608,0.08237954069413235,9.0793234583333327,0.0,-3.9880376666666666
1403638127850096896,-0.0048869219055841231,0.02722713633111154,0.086568330898918744,9.0874956666666655,-0.032688833333333334,-3.9635210416666666
1403638127855097088,-0.0048869219055841231,0.031415926535897934,0.08307767239493008,9.0057735833333332,-0.057205458333333334,-3.97169325
1403638127860097024,-0.0041887902047863905,0.027925268031909273,0.085172067497323284,8.9976013749999986,-0.081722083333333334,-3.9390044166666667
1403638127865096960,-0.0055850536063818549,0.032114058236695664,0.07958701389094143,8.9322237083333338,-0.073549874999999987,-3.9144877916666663
1403638127870096896,-0.0034906585039886592,0.024434609527920613,0.07958701389094143,8.7769517500000003,-0.18796079166666665,-3.8491101249999997
1403638127875097088,0.00069813170079773186,0.020245819323134219,0.069813170079773182,8.8014683749999989,-0.17978858333333333,-3.8654545416666664
1403638127880097024,0.0,0.013962634015954637,0.075398223686155036,8.8586738333333326,-0.13892754166666665,-3.8899711666666663
1403638127885096960,0.0013962634015954637,0.010471975511965976,0.072605696882964116,8.9812569583333328,-0.11441091666666667,-3.8899711666666663
1403638127890096896,0.0027925268031909274,0.0097738438111682462,0.08307767239493008,9.0793234583333327,-0.10623870833333333,-3.8899711666666663
1403638127895097088,0.00069813170079773186,0.017453292519943295,0.08237954069413235,9.0793234583333327,-0.065377666666666667,-3.906315583333333
1403638127900097024,-0.0027925268031909274,0.020943951023931952,0.088662726001311934,9.0793234583333327,-0.081722083333333334,-3.9390044166666667
1403638127905096960,-0.0013962634015954637,0.02722713633111154,0.08307767239493008,9.0302902083333318,-0.073549874999999987,-3.97169325
1403638127910096896,0.0013962634015954637,0.02583087292951608,0.085870199198121014,8.9322237083333338,-0.081722083333333334,-4.0452431249999998
1403638127915097088,0.0090757121103705145,0.031415926535897934,0.080983277292536876,8.9567403333333324,-0.065377666666666667,-4.0043820833333328
1403638127920097024,0.011868238913561441,0.019547687622336492,0.078888882190143686,8.7524351249999999,-0.040861041666666667,-3.906315583333333
1403638127925096960,0.0062831853071795866,0.016755160819145562,0.071907565182166372,9.0956678750000002,0.081722083333333334,-3.9798654583333328
1403638127930096896,-0.0055850536063818549,0.017453292519943295,0.069813170079773182,8.9322237083333338,0.073549874999999987,-3.8654545416666664
1403638127935097088,-0.018151424220741029,0.020943951023931952,0.068416906678177722,8.9976013749999986,0.065377666666666667,-3.9553488333333329
1403638127940097024,-0.022340214425527419,0.020943951023931952,0.076794487087750496,8.8014683749999989,-0.081722083333333334,-3.857282333333333
1403638127945096960,-0.023038346126325153,0.014660765716752367,0.07749261878854824,8.834157208333334,-0.22064962499999999,-3.8327657083333331
1403638127950096896,-0.011868238913561441,0.0048869219055841231,0.078888882190143686,8.9649125416666671,-0.35957716666666667,-3.92266
1403638127955097088,-0.0027925268031909274,0.01117010721276371,0.071209433481368656,9.0057735833333332,-0.34323275000000003,-3.9390044166666667
1403638127960097024,0.0062831853071795866,0.013962634015954637,0.064926248174189058,8.8913626666666659,-0.3350605416666666,-3.8899711666666663
1403638127965096960,0.010471975511965976,0.016755160819145562,0.063529984772593598,8.9894291666666657,-0.13075533333333333,-3.92266
1403638127970096896,0.008377580409572781,0.017453292519943295,0.067718774977379978,8.793296166666666,-0.024516625,-3.881798958333333
1403638127975097088,0.0027925268031909274,0.014660765716752367,0.067718774977379978,8.9649125416666671,0.11441091666666667,-4.0452431249999998
1403638127980097024,-0.0048869219055841231,0.013264502315156905,0.072605696882964116,8.9158792916666663,0.098066500000000001,-4.0452431249999998
1403638127985096960,-0.0069813170079773184,0.011868238913561441,0.074001960284559576,8.9976013749999986,0.032688833333333334,-3.9798654583333328
1403638127990096896,-0.016057029118347832,0.0090757121103705145,0.073303828583761846,8.9158792916666663,-0.065377666666666667,-3.9635210416666666
1403638127995097088,-0.016057029118347832,0.011868238913561441,0.071209433481368656,8.9730847499999999,-0.065377666666666667,-3.9390044166666667
1403638128000097024,-0.012566370614359173,0.0153588974175501,0.072605696882964116,8.883190458333333,-0.122583125,-3.906315583333333
1403638128005096960,-0.011868238913561441,0.021642082724729686,0.073303828583761846,9.0466346249999994,-0.122583125,-3.9144877916666663
1403638128010096896,-0.0090757121103705145,0.024434609527920613,0.071907565182166372,8.9894291666666657,-0.15527195833333335,-3.947176625
1403638128015097088,0.0,0.02722713633111154,0.068416906678177722,9.0874956666666655,-0.122583125,-3.9798654583333328
1403638128020097024,0.0048869219055841231,0.02583087292951608,0.060737457969402671,8.8913626666666659,-0.089894291666666667,-3.8981433750000001
1403638128025096960,0.00069813170079773186,0.018151424220741029,0.059341194567807204,8.9403959166666649,0.0,-3.881798958333333
1403638128030096896,-0.0048869219055841231,0.016057029118347832,0.057246799465414,8.7606073333333327,0.0,-3.8899711666666663
1403638128035097088,-0.011868238913561441,0.008377580409572781,0.058643062867009467,8.883190458333333,0.065377666666666667,-3.92266
1403638128040097024,-0.016755160819145562,0.010471975511965976,0.067020643276582248,8.9485681249999995,-0.040861041666666667,-3.947176625
1403638128045096960,-0.018849555921538759,0.010471975511965976,0.074001960284559576,9.1120122916666659,-0.089894291666666667,-3.9308322083333329
1403638128050096896,-0.014660765716752367,0.0097738438111682462,0.074700091985357306,9.0221180000000007,-0.30237170833333332,-3.906315583333333
1403638128055097088,-0.008377580409572781,0.0090757121103705145,0.07609635538695278,9.1038400833333331,-0.34323275000000003,-3.9390044166666667
1403638128060097024,-0.0048869219055841231,0.016057029118347832,0.074001960284559576,8.9403959166666649,-0.31871612500000002,-3.8654545416666664
1403638128065096960,0.00069813170079773186,0.017453292519943295,0.071907565182166372,8.9485681249999995,-0.22882183333333334,-3.906315583333333
1403638128070096896,0.0027925268031909274,0.018849555921538759,0.07749261878854824,8.834157208333334,-0.13075533333333333,-3.8981433750000001
1403638128075097088,0.0041887902047863905,0.017453292519943295,0.089360857702109678,8.8423294166666651,-0.024516625,-3.947176625
1403638128080097024,-0.0020943951023931952,0.0153588974175501,0.092851516206098328,8.9158792916666663,0.016344416666666667,-4.0779319583333331
1403638128085096960,-0.008377580409572781,0.011868238913561441,0.097040306410884708,8.9649125416666671,0.0,-4.037070916666667
1403638128090096896,-0.01117010721276371,0.016755160819145562,0.093549647906896058,8.9730847499999999,-0.024516625,-4.0125542916666666
1403638128095097088,-0.013264502315156905,0.016755160819145562,0.094945911308491532,8.9649125416666671,-0.13075533333333333,-4.0207264999999994
1403638128100097024,-0.008377580409572781,0.023038346126325153,0.087266462599716474,8.834157208333334,-0.16344416666666667,-3.9635210416666666
1403638128105096960,0.00069813170079773186,0.016057029118347832,0.088662726001311934,8.883190458333333,-0.11441091666666667,-3.8981433750000001
1403638128110096896,0.0013962634015954637,0.014660765716752367,0.085870199198121014,8.8913626666666659,-0.098066500000000001,-3.8981433750000001
1403638128115097088,0.0,0.0027925268031909274,0.088662726001311934,8.9649125416666671,-0.089894291666666667,-3.8654545416666664
1403638128120097024,-0.0041887902047863905,0.0055850536063818549,0.085870199198121014,9.0302902083333318,-0.04903325,-3.8981433750000001
1403638128125096960,-0.0055850536063818549,0.008377580409572781,0.092153384505300612,8.9976013749999986,-0.20430520833333332,-3.8654545416666664
1403638128130096896,0.0,0.010471975511965976,0.089360857702109678,8.9812569583333328,-0.18796079166666665,-3.8491101249999997
1403638128135097088,0.0027925268031909274,0.0076794487087750501,0.088662726001311934,8.883190458333333,-0.17978858333333333,-3.8899711666666663
1403638128140097024,0.0048869219055841231,0.0055850536063818549,0.08377580409572781,8.9894291666666657,-0.081722083333333334,-3.9962098749999995
1403638128145096960,0.0020943951023931952,0.010471975511965976,0.091455252804502868,8.9567403333333324,-0.081722083333333334,-4.0452431249999998
1403638128150096896,0.0020943951023931952,0.018151424220741029,0.089360857702109678,9.0956678750000002,-0.040861041666666667,-4.1024485833333335
1403638128155097088,-0.00069813170079773186,0.024434609527920613,0.094945911308491532,8.8750182500000001,-0.10623870833333333,-4.0697597499999993
1403638128160097024,0.0020943951023931952,0.025132741228718346,0.093549647906896058,8.8423294166666651,-0.057205458333333334,-4.0779319583333331
1403638128165096960,-0.00069813170079773186,0.022340214425527419,0.094945911308491532,8.7115740833333319,-0.073549874999999987,-4.0207264999999994
1403638128170096896,0.0027925268031909274,0.018849555921538759,0.090058989402907408,8.8750182500000001,-0.073549874999999987,-4.0779319583333331
1403638128175097088,0.0013962634015954637,0.014660765716752367,0.092851516206098328,8.8014683749999989,-0.089894291666666667,-3.97169325
1403638128180097024,0.0020943951023931952,0.012566370614359173,0.090058989402907408,8.9322237083333338,0.024516625,-4.0125542916666666
1403638128185096960,0.0020943951023931952,0.010471975511965976,0.089360857702109678,8.9158792916666663,-0.024516625,-3.881798958333333
1403638128190096896,0.0027925268031909274,0.0097738438111682462,0.080983277292536876,9.1038400833333331,-0.04903325,-3.8736267500000001
1403638128195097088,0.0041887902047863905,0.013264502315156905,0.078888882190143686,9.0139457916666661,-0.040861041666666667,-3.8409379166666664
1403638128200097024,0.0013962634015954637,0.013962634015954637,0.069115038378975438,9.1201845000000006,0.040861041666666667,-3.8327657083333331
1403638128205096960,0.0020943951023931952,0.020245819323134219,0.067718774977379978,9.0139457916666661,0.0081722083333333334,-3.8654545416666664
1403638128210096896,-0.0020943951023931952,0.020245819323134219,0.063529984772593598,9.1120122916666659,0.073549874999999987,-3.881798958333333
1403638128215097088,-0.0076794487087750501,0.02652900463031381,0.062133721370998138,8.9976013749999986,0.032688833333333334,-3.881798958333333
1403638128220097024,-0.0090757121103705145,0.038397243543875248,0.062133721370998138,9.0956678750000002,0.057205458333333334,-3.9798654583333328
1403638128225096960,-0.013962634015954637,0.039793506945470715,0.064228116473391328,8.8178127916666664,-0.098066500000000001,-3.9390044166666667
1403638128230096896,-0.010471975511965976,0.030019663134302467,0.064228116473391328,8.8423294166666651,-0.17978858333333333,-3.9798654583333328
1403638128235097088,-0.01117010721276371,0.02583087292951608,0.064228116473391328,8.6870574583333333,-0.24516625,-3.9308322083333329
1403638128240097024,-0.008377580409572781,0.018849555921538759,0.066322511575784518,8.8505016249999997,-0.23699404166666665,-3.9880376666666666
1403638128245096960,-0.0034906585039886592,0.017453292519943295,0.070511301780570912,8.8014683749999989,-0.25333845833333329,-3.9635210416666666
1403638128250096896,0.0048869219055841231,0.011868238913561441,0.072605696882964116,8.8913626666666659,-0.23699404166666665,-3.9553488333333329
1403638128255097088,0.0062831853071795866,0.011868238913561441,0.073303828583761846,8.9649125416666671,-0.18796079166666665,-3.9553488333333329
1403638128260097024,0.0076794487087750501,0.0097738438111682462,0.07749261878854824,8.9894291666666657,-0.040861041666666667,-3.947176625
1403638128265096960,0.008377580409572781,0.0153588974175501,0.07819075048934597,8.9812569583333328,0.032688833333333334,-3.9390044166666667
1403638128270096896,-0.0020943951023931952,0.020245819323134219,0.080285145591739146,9.0057735833333332,0.024516625,-3.9308322083333329
1403638128275097088,-0.0034906585039886592,0.023736477827122883,0.078888882190143686,8.9649125416666671,0.040861041666666667,-3.906315583333333
1403638128280097024,-0.0041887902047863905,0.030019663134302467,0.080285145591739146,9.0956678750000002,-0.040861041666666667,-3.947176625
1403638128285096960,-0.0034906585039886592,0.038397243543875248,0.074700091985357306,8.9812569583333328,-0.122583125,-3.9635210416666666
1403638128290096896,-0.0048869219055841231,0.029321531433504733,0.071907565182166372,9.0139457916666661,-0.11441091666666667,-3.9880376666666666
1403638128295097088,-0.0055850536063818549,0.033510321638291124,0.072605696882964116,8.8995348749999987,-0.098066500000000001,-3.9880376666666666
1403638128300097024,-0.0048869219055841231,0.029321531433504733,0.07958701389094143,8.6788852500000004,-0.13075533333333333,-3.9308322083333329
1403638128305096960,-0.0020943951023931952,0.020245819323134219,0.07749261878854824,8.7279184999999995,-0.065377666666666667,-3.9553488333333329
1403638128310096896,0.00069813170079773186,0.012566370614359173,0.08307767239493008,8.8259849999999993,-0.032688833333333334,-3.9880376666666666
1403638128315097088,-0.0020943951023931952,0.016755160819145562,0.076794487087750496,8.9403959166666649,-0.089894291666666667,-4.0207264999999994
1403638128320097024,0.0020943951023931952,0.013962634015954637,0.072605696882964116,8.9894291666666657,-0.081722083333333334,-3.9962098749999995
1403638128325096960,-0.0013962634015954637,0.023038346126325153,0.071209433481368656,9.0057735833333332,0.0081722083333333334,-3.9798654583333328
1403638128330096896,0.00069813170079773186,0.02652900463031381,0.07749261878854824,9.0302902083333318,-0.040861041666666667,-3.9635210416666666
1403638128335097088,-0.00069813170079773186,0.032114058236695664,0.072605696882964116,9.0956678750000002,0.0081722083333333334,-3.9880376666666666
1403638128340097024,-0.0041887902047863905,0.035604716740684328,0.071907565182166372,8.9322237083333338,-0.032688833333333334,-3.9308322083333329
1403638128345096960,-0.0090757121103705145,0.030019663134302467,0.061435589670200401,8.9730847499999999,-0.04903325,-3.8899711666666663
1403638128350096896,-0.0090757121103705145,0.020943951023931952,0.069813170079773182,8.8423294166666651,-0.081722083333333334,-3.857282333333333
1403638128355097088,-0.01117010721276371,0.028623399732707,0.069115038378975438,8.9894291666666657,-0.11441091666666667,-3.8899711666666663
1403638128360097024,-0.0069813170079773184,0.023038346126325153,0.074001960284559576,8.8668460416666655,-0.20430520833333332,-3.8082490833333327
1403638128365096960,-0.0041887902047863905,0.020245819323134219,0.069115038378975438,9.0466346249999994,-0.17978858333333333,-3.8245934999999998
1403638128370096896,-0.010471975511965976,0.018151424220741029,0.072605696882964116,8.883190458333333,-0.22064962499999999,-3.857282333333333
1403638128375097088,-0.0090757121103705145,0.018849555921538759,0.071907565182166372,9.0384624166666665,-0.16344416666666667,-3.8736267500000001
1403638128380097024,-0.0076794487087750501,0.019547687622336492,0.07819075048934597,8.9077070833333334,-0.16344416666666667,-3.8327657083333331
1403638128385096960,-0.0013962634015954637,0.020943951023931952,0.080983277292536876,8.9485681249999995,-0.122583125,-3.8899711666666663
1403638128390096896,0.0,0.023736477827122883,0.085172067497323284,8.8750182500000001,-0.10623870833333333,-3.9144877916666663
1403638128395097088,-0.00069813170079773186,0.021642082724729686,0.08237954069413235,9.0057735833333332,-0.081722083333333334,-4.0125542916666666
1403638128400097024,-0.00069813170079773186,0.02583087292951608,0.087266462599716474,8.8750182500000001,-0.14709974999999997,-3.9880376666666666
1403638128405096960,-0.00069813170079773186,0.02583087292951608,0.090757121103705138,8.9567403333333324,-0.089894291666666667,-4.037070916666667
1403638128410096896,0.0,0.02583087292951608,0.092851516206098328,8.7851239583333331,-0.10623870833333333,-3.92266
1403638128415097088,0.0062831853071795866,0.016755160819145562,0.094247779607693802,8.8259849999999993,-0.073549874999999987,-3.9635210416666666
1403638128420097024,0.0027925268031909274,0.014660765716752367,0.089360857702109678,8.8423294166666651,-0.04903325,-3.9308322083333329
1403638128425096960,-0.00069813170079773186,0.0090757121103705145,0.089360857702109678,8.9485681249999995,-0.032688833333333334,-3.9308322083333329
1403638128430096896,-0.0041887902047863905,0.0076794487087750501,0.090058989402907408,8.8505016249999997,-0.081722083333333334,-3.8899711666666663
1403638128435097088,-0.0062831853071795866,0.0041887902047863905,0.090757121103705138,8.9812569583333328,-0.081722083333333334,-3.8736267500000001
1403638128440097024,-0.0027925268031909274,0.01117010721276371,0.090757121103705138,9.0548068333333322,-0.098066500000000001,-3.881798958333333
1403638128445096960,0.0034906585039886592,0.016755160819145562,0.085172067497323284,9.1365289166666663,-0.089894291666666667,-3.9144877916666663
1403638128450096896,0.0034906585039886592,0.02652900463031381,0.07749261878854824,8.9894291666666657,-0.089894291666666667,-3.8899711666666663
1403638128455097088,-0.0041887902047863905,0.023038346126325153,0.074001960284559576,8.9894291666666657,-0.057205458333333334,-3.9144877916666663
1403638128460097024,-0.0097738438111682462,0.02652900463031381,0.074001960284559576,8.8913626666666659,-0.0081722083333333334,-3.9798654583333328
1403638128465096960,-0.0097738438111682462,0.018849555921538759,0.080285145591739146,8.8505016249999997,-0.081722083333333334,-4.0043820833333328
1403638128470096896,-0.013264502315156905,0.021642082724729686,0.08307767239493008,8.8586738333333326,-0.073549874999999987,-3.9962098749999995
1403638128475097088,-0.0090757121103705145,0.0153588974175501,0.095644043009289262,8.8096405833333318,-0.22882183333333334,-3.9308322083333329
1403638128480097024,-0.0020943951023931952,0.01117010721276371,0.090757121103705138,8.8178127916666664,-0.30237170833333332,-3.9144877916666663
1403638128485096960,0.0034906585039886592,0.011868238913561441,0.087266462599716474,8.9077070833333334,-0.26151066666666667,-3.881798958333333
1403638128490096896,0.0062831853071795866,0.012566370614359173,0.07819075048934597,8.9240514999999991,-0.16344416666666667,-3.947176625
1403638128495097088,0.0076794487087750501,0.008377580409572781,0.080983277292536876,8.9894291666666657,-0.13075533333333333,-3.9635210416666666
1403638128500097024,0.0076794487087750501,0.018151424220741029,0.085172067497323284,9.0057735833333332,0.032688833333333334,-3.9962098749999995
1403638128505096960,0.0034906585039886592,0.020245819323134219,0.091455252804502868,8.9649125416666671,0.04903325,-3.9962098749999995
1403638128510096896,-0.0027925268031909274,0.027925268031909273,0.084473935796525554,8.9730847499999999,0.081722083333333334,-3.97169325
1403638128515097088,-0.0076794487087750501,0.023038346126325153,0.08307767239493008,8.834157208333334,0.057205458333333334,-3.9308322083333329
1403638128520097024,-0.0069813170079773184,0.02583087292951608,0.074001960284559576,8.9403959166666649,0.016344416666666667,-3.9390044166666667
1403638128525096960,-0.0090757121103705145,0.019547687622336492,0.069115038378975438,8.883190458333333,-0.065377666666666667,-3.8736267500000001
1403638128530096896,-0.008377580409572781,0.0153588974175501,0.066322511575784518,9.0221180000000007,-0.122583125,-3.906315583333333
1403638128535097088,-0.0055850536063818549,0.013962634015954637,0.071209433481368656,8.9485681249999995,-0.15527195833333335,-3.9144877916666663
1403638128540097024,-0.0041887902047863905,0.020245819323134219,0.069813170079773182,9.0139457916666661,-0.13075533333333333,-3.9553488333333329
1403638128545096960,-0.0027925268031909274,0.023736477827122883,0.074700091985357306,8.9322237083333338,-0.14709974999999997,-3.8981433750000001
1403638128550096896,-0.0069813170079773184,0.022340214425527419,0.071907565182166372,9.0221180000000007,-0.122583125,-3.947176625
1403638128555097088,-0.0041887902047863905,0.021642082724729686,0.075398223686155036,8.8586738333333326,-0.15527195833333335,-3.9635210416666666
1403638128560097024,0.00069813170079773186,0.019547687622336492,0.07609635538695278,8.9812569583333328,-0.098066500000000001,-3.9635210416666666
1403638128565096960,0.0020943951023931952,0.023038346126325153,0.076794487087750496,8.8586738333333326,-0.15527195833333335,-3.8981433750000001
1403638128570096896,-0.0020943951023931952,0.018151424220741029,0.080983277292536876,8.9976013749999986,-0.089894291666666667,-3.8981433750000001
1403638128575097088,0.00069813170079773186,0.020943951023931952,0.07819075048934597,8.8668460416666655,-0.065377666666666667,-3.881798958333333
1403638128580097024,0.0,0.016755160819145562,0.078888882190143686,8.9322237083333338,-0.024516625,-3.8981433750000001
1403638128585096960,-0.0062831853071795866,0.016755160819145562,0.07958701389094143,8.8750182500000001,-0.122583125,-3.8899711666666663
1403638128590096896,0.0,0.01117010721276371,0.086568330898918744,9.0548068333333322,-0.057205458333333334,-3.92266
1403638128595097088,-0.00069813170079773186,0.018849555921538759,0.087266462599716474,8.9812569583333328,-0.16344416666666667,-3.92266
1403638128600097024,0.0027925268031909274,0.023038346126325153,0.089360857702109678,9.0384624166666665,-0.122583125,-3.9635210416666666
1403638128605096960,0.0013962634015954637,0.029321531433504733,0.08168140899333462,8.8995348749999987,-0.098066500000000001,-3.8899711666666663
1403638128610096896,0.0,0.024434609527920613,0.07749261878854824,8.9485681249999995,-0.024516625,-3.947176625
1403638128615097088,-0.0020943951023931952,0.027925268031909273,0.074001960284559576,8.8668460416666655,0.0081722083333333334,-3.97169325
1403638128620097024,-0.0041887902047863905,0.025132741228718346,0.078888882190143686,8.8750182500000001,0.0081722083333333334,-3.9635210416666666
1403638128625096960,-0.0062831853071795866,0.021642082724729686,0.074700091985357306,8.8178127916666664,0.016344416666666667,-3.9308322083333329
1403638128630096896,-0.0090757121103705145,0.017453292519943295,0.07609635538695278,8.8995348749999987,-0.089894291666666667,-3.9553488333333329
1403638128635097088,-0.011868238913561441,0.018151424220741029,0.064926248174189058,8.9403959166666649,-0.16344416666666667,-3.92266
1403638128640097024,-0.01117010721276371,0.01117010721276371,0.064926248174189058,8.8423294166666651,-0.122583125,-3.8654545416666664
1403638128645096960,-0.012566370614359173,0.0069813170079773184,0.067718774977379978,8.8750182500000001,-0.196133,-3.8899711666666663
1403638128650096896,-0.012566370614359173,0.0020943951023931952,0.074700091985357306,8.9730847499999999,-0.21247741666666667,-3.9390044166666667
1403638128655097088,-0.008377580409572781,0.0097738438111682462,0.080285145591739146,8.9730847499999999,-0.28602729166666663,-3.906315583333333
1403638128660097024,-0.0020943951023931952,0.01117010721276371,0.088662726001311934,8.883190458333333,-0.26968287499999999,-3.857282333333333
1403638128665096960,-0.0020943951023931952,0.012566370614359173,0.087266462599716474,8.9322237083333338,-0.17161637500000002,-3.881798958333333
1403638128670096896,-0.0041887902047863905,0.0055850536063818549,0.098436569812480182,8.9567403333333324,-0.20430520833333332,-3.9144877916666663
1403638128675097088,-0.0055850536063818549,0.0069813170079773184,0.099134701513277898,9.1120122916666659,-0.15527195833333335,-3.9390044166666667
1403638128680097024,-0.0097738438111682462,0.0048869219055841231,0.1054178868204575,8.9485681249999995,-0.17161637500000002,-3.8491101249999997
1403638128685096960,-0.010471975511965976,0.0013962634015954637,0.1054178868204575,8.9485681249999995,-0.16344416666666667,-3.8245934999999998
1403638128690096896,-0.016755160819145562,-0.0069813170079773184,0.11239920382843484,8.8750182500000001,-0.20430520833333332,-3.8736267500000001
1403638128695097088,-0.016057029118347832,-0.018151424220741029,0.11519173063162574,8.9485681249999995,-0.18796079166666665,-3.8491101249999997
1403638128700097024,-0.01117010721276371,-0.018151424220741029,0.11868238913561441,8.9077070833333334,-0.17978858333333333,-3.8327657083333331
1403638128705096960,-0.01117010721276371,-0.011868238913561441,0.11938052083641214,9.1120122916666659,-0.081722083333333334,-3.947176625
1403638128710096896,-0.0048869219055841231,-0.0027925268031909274,0.11309733552923257,8.9976013749999986,-0.098066500000000001,-3.9553488333333329
1403638128715097088,-0.0027925268031909274,0.0034906585039886592,0.10332349171806432,9.1773899583333325,0.0,-4.0288987083333332
1403638128720097024,-0.00069813170079773186,0.013264502315156905,0.096342174710086978,8.9403959166666649,0.11441091666666667,-4.037070916666667
1403638128725096960,-0.0069813170079773184,0.014660765716752367,0.093549647906896058,8.9812569583333328,0.28602729166666663,-4.1106207916666664
1403638128730096896,-0.01117010721276371,0.017453292519943295,0.094247779607693802,8.8178127916666664,0.20430520833333332,-4.0861041666666669
1403638128735097088,-0.013264502315156905,0.018151424220741029,0.08377580409572781,8.8995348749999987,0.196133,-4.0615875416666665
1403638128740097024,-0.019547687622336492,0.017453292519943295,0.07749261878854824,8.8178127916666664,0.122583125,-3.9880376666666666
1403638128745096960,-0.025132741228718346,0.0055850536063818549,0.066322511575784518,8.8505016249999997,0.065377666666666667,-3.9880376666666666
1403638128750096896,-0.029321531433504733,0.0020943951023931952,0.064926248174189058,8.7524351249999999,-0.089894291666666667,-3.9308322083333329
1403638128755097088,-0.0307177948351002,-0.0041887902047863905,0.068416906678177722,8.9812569583333328,-0.21247741666666667,-3.9308322083333329
1403638128760097024,-0.027925268031909273,0.0027925268031909274,0.072605696882964116,8.9077070833333334,-0.27785508333333331,-3.8899711666666663
1403638128765096960,-0.018151424220741029,0.0048869219055841231,0.074001960284559576,8.9812569583333328,-0.28602729166666663,-3.92266
1403638128770096896,-0.0069813170079773184,0.019547687622336492,0.078888882190143686,9.0711512499999998,-0.26968287499999999,-4.0288987083333332
1403638128775097088,0.0027925268031909274,0.032812189937493394,0.07819075048934597,8.9976013749999986,-0.21247741666666667,-4.0779319583333331
1403638128780097024,0.010471975511965976,0.038397243543875248,0.07609635538695278,8.8259849999999993,-0.16344416666666667,-4.126965208333333
1403638128785096960,0.0097738438111682462,0.034208453339088861,0.071209433481368656,8.7197462916666666,0.057205458333333334,-4.0779319583333331
1403638128790096896,-0.00069813170079773186,0.02722713633111154,0.064926248174189058,8.7360907083333323,0.26151066666666667,-4.0779319583333331
1403638128795097088,-0.013264502315156905,0.023736477827122883,0.067718774977379978,8.834157208333334,0.24516625,-4.0615875416666665
1403638128800097024,-0.024434609527920613,0.024434609527920613,0.059341194567807204,8.8178127916666664,0.089894291666666667,-3.9962098749999995
1403638128805096960,-0.037000980142279788,0.0069813170079773184,0.056548667764616284,8.793296166666666,-0.073549874999999987,-3.8899711666666663
1403638128810096896,-0.039095375244672985,0.0,0.060039326268604934,8.8423294166666651,-0.28602729166666663,-3.8654545416666664
1403638128815097088,-0.030019663134302467,-0.0020943951023931952,0.068416906678177722,8.9158792916666663,-0.47398808333333331,-3.9390044166666667
1403638128820097024,-0.023736477827122883,0.0013962634015954637,0.071209433481368656,8.9894291666666657,-0.45764366666666667,-3.92266
1403638128825096960,-0.023736477827122883,-0.00069813170079773186,0.080285145591739146,8.9403959166666649,-0.47398808333333331,-3.8491101249999997
1403638128830096896,-0.018151424220741029,0.0013962634015954637,0.092153384505300612,9.0221180000000007,-0.4494714583333333,-3.8082490833333327
1403638128835097088,-0.012566370614359173,0.01117010721276371,0.11519173063162574,9.0793234583333327,-0.4903325,-3.9308322083333329
1403638128840097024,-0.0076794487087750501,0.017453292519943295,0.1270599695451872,8.9812569583333328,-0.43312704166666666,-3.8491101249999997
1403638128845096960,-0.00069813170079773186,0.013264502315156905,0.14241886696273731,8.883190458333333,-0.32688833333333334,-3.92266
1403638128850096896,0.0055850536063818549,0.019547687622336492,0.14730578886832138,8.883190458333333,-0.13892754166666665,-3.881798958333333
1403638128855097088,0.016755160819145562,0.008377580409572781,0.14521139376592823,8.7851239583333331,-0.081722083333333334,-3.947176625
1403638128860097024,0.017453292519943295,0.01117010721276371,0.11728612573401893,9.2264232083333333,0.11441091666666667,-4.1596540416666663
1403638128865096960,0.01117010721276371,0.014660765716752367,0.099134701513277898,8.8586738333333326,0.32688833333333334,-4.0697597499999993
1403638128870096896,0.0069813170079773184,0.016057029118347832,0.08237954069413235,8.9649125416666671,0.49850470833333332,-4.1678262500000001
1403638128875097088,0.0034906585039886592,0.024434609527920613,0.071209433481368656,8.9403959166666649,0.47398808333333331,-4.1678262500000001
1403638128880097024,0.0,0.025132741228718346,0.046076692252650306,8.9158792916666663,0.4494714583333333,-4.1106207916666664
1403638128885096960,-0.013962634015954637,0.023038346126325153,0.025132741228718346,8.8913626666666659,0.38409379166666668,-4.1514818333333334
1403638128890096896,-0.020943951023931952,0.0307177948351002,0.012566370614359173,8.9485681249999995,0.30237170833333332,-4.0452431249999998
1403638128895097088,-0.02652900463031381,0.027925268031909273,0.0076794487087750501,8.8586738333333326,0.024516625,-4.0207264999999994
1403638128900097024,-0.024434609527920613,0.032812189937493394,0.0076794487087750501,8.9322237083333338,-0.089894291666666667,-3.9553488333333329
1403638128905096960,-0.013264502315156905,0.029321531433504733,0.017453292519943295,8.7769517500000003,-0.22064962499999999,-3.8245934999999998
1403638128910096896,-0.0027925268031909274,0.019547687622336492,0.025132741228718346,9.0384624166666665,-0.27785508333333331,-3.7919046666666665
1403638128915097088,-0.0041887902047863905,0.018849555921538759,0.023038346126325153,8.9812569583333328,-0.23699404166666665,-3.7837324583333327
1403638128920097024,-0.0076794487087750501,0.023038346126325153,0.023736477827122883,9.2100787916666658,-0.21247741666666667,-3.8491101249999997
1403638128925096960,-0.012566370614359173,0.036302848441482058,0.037699111843077518,9.0793234583333327,-0.31871612500000002,-3.906315583333333
1403638128930096896,-0.0062831853071795866,0.038397243543875248,0.052359877559829883,8.883190458333333,-0.37592158333333331,-3.881798958333333
1403638128935097088,-0.00069813170079773186,0.042586033748661642,0.068416906678177722,8.7687795416666656,-0.36774937499999999,-3.9553488333333329
1403638128940097024,0.0034906585039886592,0.041189770347066175,0.07819075048934597,8.7524351249999999,-0.34323275000000003,-4.0207264999999994
1403638128945096960,0.013962634015954637,0.039095375244672985,0.080285145591739146,8.793296166666666,-0.32688833333333334,-4.1678262500000001
1403638128950096896,0.012566370614359173,0.039793506945470715,0.08237954069413235,8.8423294166666651,-0.27785508333333331,-4.1841706666666667
1403638128955097088,0.010471975511965976,0.040491638646268438,0.07958701389094143,8.6543686249999983,-0.17978858333333333,-4.0452431249999998
1403638128960097024,0.011868238913561441,0.023038346126325153,0.088662726001311934,8.7360907083333323,-0.081722083333333334,-4.0043820833333328
1403638128965096960,0.01117010721276371,0.016057029118347832,0.087266462599716474,8.8586738333333326,-0.024516625,-4.037070916666667
1403638128970096896,0.00069813170079773186,0.0048869219055841231,0.089360857702109678,9.0057735833333332,0.024516625,-3.9635210416666666
1403638128975097088,-0.0062831853071795866,0.011868238913561441,0.080285145591739146,9.1038400833333331,0.13892754166666665,-3.8899711666666663
1403638128980097024,-0.01117010721276371,0.01117010721276371,0.075398223686155036,9.0302902083333318,0.065377666666666667,-3.8082490833333327
1403638128985096960,-0.013962634015954637,0.0097738438111682462,0.066322511575784518,9.0874956666666655,0.032688833333333334,-3.8409379166666664
1403638128990096896,-0.018849555921538759,0.016755160819145562,0.062831853071795868,9.0466346249999994,-0.098066500000000001,-3.8164212916666664
1403638128995097088,-0.013264502315156905,0.023736477827122883,0.057944931166211737,9.0221180000000007,-0.11441091666666667,-3.7755602499999998
1403638129000097024,-0.0069813170079773184,0.024434609527920613,0.070511301780570912,8.6135075833333321,-0.20430520833333332,-3.5957716666666664
1403638129005096960,0.0027925268031909274,0.0,0.084473935796525554,8.5399577083333327,-0.196133,-3.4731885416666666
1403638129010096896,0.01117010721276371,-0.0090757121103705145,0.094945911308491532,8.9649125416666671,-0.31871612500000002,-3.702010375
1403638129015097088,0.017453292519943295,0.016057029118347832,0.088662726001311934,9.7903055833333319,-0.196133,-4.0779319583333331
1403638129020097024,0.013962634015954637,0.047472955654245766,0.07609635538695278,9.7984777916666665,-0.098066500000000001,-4.2740649583333337
1403638129025096960,0.0062831853071795866,0.078888882190143686,0.05445427266222308,9.6595502499999988,-0.14709974999999997,-4.2250317083333329
1403638129030096896,0.0062831853071795866,0.071907565182166372,0.034906585039886591,8.9322237083333338,-0.23699404166666665,-3.947176625
1403638129035097088,0.01117010721276371,0.042586033748661642,0.008377580409572781,8.9894291666666657,-0.13892754166666665,-4.037070916666667
1403638129040097024,0.0076794487087750501,0.039095375244672985,-0.013962634015954637,9.1365289166666663,-0.057205458333333334,-4.3230982083333336
1403638129045096960,-0.00069813170079773186,0.033510321638291124,-0.040491638646268438,9.242767624999999,0.15527195833333335,-4.3149259999999998
1403638129050096896,-0.018151424220741029,0.032114058236695664,-0.05166174585903216,9.1528733333333321,0.13892754166666665,-4.1759984583333329
1403638129055097088,-0.029321531433504733,0.023736477827122883,-0.062133721370998138,9.0956678750000002,0.040861041666666667,-3.9880376666666666
1403638129060097024,-0.040491638646268438,0.0153588974175501,-0.069813170079773182,9.0793234583333327,-0.16344416666666667,-3.9880376666666666
1403638129065096960,-0.043284165449459372,0.011868238913561441,-0.08377580409572781,9.2591120416666666,-0.40043820833333332,-4.0452431249999998
1403638129070096896,-0.041189770347066175,0.014660765716752367,-0.094247779607693802,8.9976013749999986,-0.392266,-3.947176625
1403638129075097088,-0.041189770347066175,0.0062831853071795866,-0.084473935796525554,9.0956678750000002,-0.31871612500000002,-3.9635210416666666
1403638129080097024,-0.045378560551852569,0.008377580409572781,-0.073303828583761846,8.8995348749999987,-0.29419949999999995,-3.9962098749999995
1403638129085096960,-0.047472955654245766,-0.0027925268031909274,-0.062831853071795868,8.9567403333333324,-0.24516625,-4.0452431249999998
1403638129090096896,-0.046774823953448029,0.0041887902047863905,-0.05445427266222308,9.0221180000000007,-0.26151066666666667,-4.1514818333333334
1403638129095097088,-0.041189770347066175,0.0097738438111682462,-0.041887902047863905,9.0221180000000007,-0.3105439166666667,-4.1514818333333334
1403638129100097024,-0.028623399732707,0.018151424220741029,-0.039793506945470715,9.0139457916666661,-0.22882183333333334,-4.1351374166666668
1403638129105096960,-0.02583087292951608,0.027925268031909273,-0.032114058236695664,9.0139457916666661,-0.016344416666666667,-4.1024485833333335
1403638129110096896,-0.028623399732707,0.027925268031909273,-0.029321531433504733,9.0139457916666661,0.26968287499999999,-4.1024485833333335
1403638129115097088,-0.038397243543875248,0.032812189937493394,-0.0097738438111682462,9.1283567083333317,0.36774937499999999,-4.1596540416666663
1403638129120097024,-0.048171087355043489,0.049567350756638949,0.0027925268031909274,9.1365289166666663,0.40043820833333332,-4.1759984583333329
1403638129125096960,-0.055152404363020817,0.055152404363020817,0.020943951023931952,9.1528733333333321,0.3350605416666666,-4.0125542916666666
1403638129130096896,-0.055152404363020817,0.064926248174189058,0.022340214425527419,9.1610455416666667,0.392266,-3.9390044166666667
1403638129135097088,-0.060039326268604934,0.062133721370998138,0.022340214425527419,9.1447011249999992,0.40861041666666664,-3.92266
1403638129140097024,-0.063529984772593598,0.071209433481368656,0.0090757121103705145,9.3408341249999989,0.50667691666666659,-4.0043820833333328
1403638129145096960,-0.067718774977379978,0.08307767239493008,0.0055850536063818549,9.2999730833333327,0.40043820833333332,-3.9962098749999995
1403638129150096896,-0.062831853071795868,0.094247779607693802,0.00069813170079773186,9.3980395833333326,0.15527195833333335,-4.0207264999999994
1403638129155097088,-0.05375614096142535,0.10681415022205297,0.008377580409572781,9.3571785416666664,-0.11441091666666667,-3.9880376666666666
1403638129160097024,-0.031415926535897934,0.11588986233242347,0.029321531433504733,9.1283567083333317,-0.14709974999999997,-3.92266
1403638129165096960,-0.0090757121103705145,0.1165879940332212,0.062133721370998138,8.9976013749999986,-0.23699404166666665,-3.92266
1403638129170096896,0.008377580409572781,0.10890854532444616,0.094247779607693802,9.1283567083333317,-0.16344416666666667,-3.9553488333333329
1403638129175097088,0.024434609527920613,0.10890854532444616,0.12775810124598494,8.9077070833333334,-0.0081722083333333334,-3.92266
1403638129180097024,0.038397243543875248,0.10053096491487339,0.17662732030182612,9.2345954166666662,-0.032688833333333334,-4.0207264999999994
1403638129185096960,0.060737457969402671,0.12077678423800758,0.21153390534171271,9.2999730833333327,-0.22064962499999999,-4.0452431249999998
1403638129190096896,0.086568330898918744,0.13124875974997358,0.24225170017681294,9.4470728333333334,-0.11441091666666667,-4.1187929999999993
1403638129195097088,0.11030480872604163,0.15079644737231007,0.27017696820872222,9.3081452916666674,0.065377666666666667,-4.0697597499999993
1403638129200097024,0.12356931104119852,0.1668534764906579,0.2960078411382383,9.4470728333333334,0.392266,-4.0615875416666665
1403638129205096960,0.12985249634837812,0.18500490071139891,0.32323497746934982,9.5124504999999999,0.57205458333333326,-4.1187929999999993
1403638129210096896,0.13334315485236678,0.20664698343612864,0.35674529910764097,9.6513780416666659,0.6292600416666666,-4.1433096249999997
1403638129215097088,0.1340412865531645,0.23108159296404923,0.38117990863556156,9.4552450416666662,0.56388237500000005,-4.037070916666667
1403638129220097024,0.13124875974997358,0.23806290997202653,0.41119957176986405,9.5451393333333332,0.55571016666666662,-3.97169325
1403638129225096960,0.13124875974997358,0.25411993909037439,0.44401176170735746,9.5206227083333328,0.57205458333333326,-4.0288987083333332
1403638129230096896,0.1291543646475804,0.26179938779914941,0.47682395164485086,9.643205833333333,0.47398808333333331,-4.1351374166666668
1403638129235097088,0.12845623294678266,0.28344147052387908,0.51312680008633282,9.6350336250000002,0.34323275000000003,-4.1351374166666668
1403638129240097024,0.13124875974997358,0.3057816849494065,0.54873151682701715,9.643205833333333,0.18796079166666665,-4.1514818333333334
1403638129245096960,0.14032447186034408,0.32532937257174299,0.58084557506371293,9.6677224583333334,-0.024516625,-4.1433096249999997
1403638129250096896,0.14730578886832138,0.33649947978450673,0.61226150159961079,9.7576167499999986,-0.13892754166666665,-4.2332039166666666
1403638129255097088,0.1556833692778942,0.36442474781641598,0.64228116473391317,9.7576167499999986,-0.024516625,-4.3067537916666661
1403638129260097024,0.16196655458507375,0.38397243543875248,0.67858401317539541,9.831166624999998,-0.0081722083333333334,-4.2985815833333332
1403638129265096960,0.1626646862858715,0.41189770347066179,0.69952796419932717,9.9047164999999993,-0.0081722083333333334,-4.3067537916666661
1403638129270096896,0.15917402778188286,0.43214352279379603,0.72047191522325926,9.7739611666666661,-0.040861041666666667,-4.2495483333333333
1403638129275097088,0.15638150097869194,0.45727626402251431,0.74141586624719114,9.8393388333333327,-0.016344416666666667,-4.2168595
1403638129280097024,0.15498523757709648,0.47822021504644624,0.75886915876713446,9.7576167499999986,-0.057205458333333334,-4.126965208333333
1403638129285096960,0.15079644737231007,0.49497537586559187,0.7742280561846846,9.733100125,0.016344416666666667,-4.1351374166666668
1403638129290096896,0.14451326206513049,0.51522119518872611,0.79237948040542561,9.643205833333333,0.024516625,-4.0779319583333331
1403638129295097088,0.13683381335635544,0.54175019981903982,0.79796453401180745,9.5042782916666653,0.057205458333333334,-3.9798654583333328
1403638129300097024,0.12636183784438945,0.543844594921433,0.80424771931898709,9.2836286666666652,0.016344416666666667,-3.8491101249999997
1403638129305096960,0.1165879940332212,0.54524085832302849,0.80354958761818929,9.2999730833333327,0.057205458333333334,-3.7837324583333327
1403638129310096896,0.1075122819228507,0.54314646322063542,0.81053090462616662,9.0302902083333318,-0.18796079166666665,-3.6938381666666662
1403638129315097088,0.10192722831646883,0.53965580471664665,0.81821035333494174,9.1038400833333331,-0.32688833333333334,-3.6938381666666662
1403638129320097024,0.10053096491487339,0.53965580471664665,0.83217298735089629,8.8096405833333318,-0.55571016666666662,-3.5794272499999997
1403638129325096960,0.10681415022205297,0.52778756580308517,0.8405505677604691,8.7769517500000003,-0.77635979166666658,-3.5467384166666669
1403638129330096896,0.11379546723003027,0.5166174585903216,0.84543748966605314,8.5399577083333327,-1.0215260416666667,-3.4486719166666666
1403638129335097088,0.12007865253720987,0.4970697709679851,0.84264496286286239,8.6298519999999996,-1.1604535833333331,-3.4568441249999995
1403638129340097024,0.1270599695451872,0.48171087355043501,0.8405505677604691,8.6380242083333325,-1.3402421666666664,-3.3914664583333329
1403638129345096960,0.13194689145077129,0.45867252742410985,0.83636177755568275,8.9976013749999986,-1.4301364583333334,-3.4650163333333333
1403638129350096896,0.14241886696273731,0.44470989340815514,0.83287111905169409,8.9403959166666649,-1.5200307499999999,-3.3260887916666664
1403638129355097088,0.14870205226991687,0.43074725939220049,0.82868232884690762,9.0302902083333318,-1.4056198333333334,-3.3179165833333331
1403638129360097024,0.15079644737231007,0.41678462537624583,0.82239914353972809,8.8178127916666664,-1.3484143749999999,-3.2116778749999999
1403638129365096960,0.14870205226991687,0.38467056713955022,0.81053090462616662,8.8505016249999997,-1.2340034583333332,-3.162644625
1403638129370096896,0.14172073526193954,0.35883969421003409,0.78051124149186413,8.7769517500000003,-1.1277647500000001,-3.1544724166666662
1403638129375097088,0.13473941825396224,0.32742376767413622,0.7449065247511798,8.8505016249999997,-0.94797616666666662,-3.138128
1403638129380097024,0.11798425743481668,0.29949849964222697,0.69813170079773179,8.7360907083333323,-0.88259849999999995,-3.2198500833333328
1403638129385096960,0.10262536001726656,0.26459191460234038,0.65135687684428378,8.5889909583333335,-0.81722083333333329,-3.0972669583333334
1403638129390096896,0.090757121103705138,0.22689280275926282,0.60528018459163346,8.5317854999999998,-0.8253930416666666,-3.0318892916666664
1403638129395097088,0.075398223686155036,0.18360863730980345,0.55222217533100593,8.4582356250000004,-0.97249279166666658,-3.0237170833333331
1403638129400097024,0.05445427266222308,0.12426744274199628,0.50405108797596232,8.482752249999999,-1.0460426666666667,-2.9746838333333332
1403638129405096960,0.041189770347066175,0.08307767239493008,0.45867252742410985,8.4909244583333336,-1.1522813749999998,-2.8929617499999996
1403638129410096896,0.02652900463031381,0.041887902047863905,0.41050144006906625,8.4990966666666665,-1.3075533333333333,-2.9256505833333333
1403638129415097088,0.013962634015954637,-0.0048869219055841231,0.36233035271402286,8.4990966666666665,-1.4628252916666666,-2.9501672083333332
1403638129420097024,0.0055850536063818549,-0.043284165449459372,0.31625366046137249,8.4745800416666661,-1.593580625,-2.9338227916666666
1403638129425096960,0.010471975511965976,-0.085172067497323284,0.28274333882308139,8.5563021250000002,-1.838746875,-2.9583394166666666
1403638129430096896,0.01117010721276371,-0.12147491593880534,0.22828906616085831,8.5808187499999988,-1.9041245416666663,-2.8684451249999996
1403638129435097088,0.010471975511965976,-0.15777776438028737,0.18011797880581482,8.6053353749999992,-1.8550912916666666,-2.9501672083333332
1403638129440097024,0.010471975511965976,-0.18360863730980345,0.13683381335635544,8.6870574583333333,-1.7978858333333332,-2.8602729166666667
1403638129445096960,0.012566370614359173,-0.21432643214490363,0.085870199198121014,8.572646541666666,-1.8714357083333331,-2.8684451249999996
1403638129450096896,0.016057029118347832,-0.2527236756887789,0.028623399732707,8.6952296666666662,-1.7325081666666666,-2.8929617499999996
1403638129455097088,0.016057029118347832,-0.28763026072866549,-0.0062831853071795866,8.6216797916666668,-1.6426138750000001,-2.8847895416666667
1403638129460097024,0.0069813170079773184,-0.31346113365818162,-0.057246799465414,8.8586738333333326,-1.5036863333333332,-3.0318892916666664
1403638129465096960,-0.00069813170079773186,-0.33231068957972032,-0.10053096491487339,8.8913626666666659,-1.5036863333333332,-3.0400614999999998
1403638129470096896,-0.0069813170079773184,-0.36023595761162963,-0.14800392056911915,8.9158792916666663,-1.5527195833333332,-3.0972669583333334
1403638129475097088,-0.0097738438111682462,-0.38676496224194346,-0.18989182261698306,8.793296166666666,-1.5445473749999998,-3.1299557916666663
1403638129480097024,-0.018849555921538759,-0.41329396687225728,-0.228987197861656,8.8178127916666664,-1.4546530833333333,-3.2198500833333328
1403638129485096960,-0.025132741228718346,-0.43772857640017787,-0.25621433419276757,8.6461964166666672,-1.4546530833333333,-3.2688833333333331
1403638129490096896,-0.024434609527920613,-0.45867252742410985,-0.28274333882308139,8.8913626666666659,-1.4301364583333334,-3.3751220416666667
1403638129495097088,-0.02652900463031381,-0.47403142484165989,-0.31276300195738388,8.8750182500000001,-1.5200307499999999,-3.3832942499999996
1403638129500097024,-0.0307177948351002,-0.48031461014883947,-0.34417892849328174,8.9894291666666657,-1.4219642499999998,-3.4813607499999994
1403638129505096960,-0.030019663134302467,-0.47822021504644624,-0.38397243543875248,8.9240514999999991,-1.4873419166666666,-3.4404997083333333
1403638129510096896,-0.032812189937493394,-0.48101274184963722,-0.41189770347066179,9.1283567083333317,-1.4137920416666665,-3.4813607499999994
1403638129515097088,-0.032114058236695664,-0.47193702973926671,-0.43353978619539146,9.2591120416666666,-1.4383086666666667,-3.5630828333333331
1403638129520097024,-0.030019663134302467,-0.46705010783368256,-0.45099307871533473,9.5042782916666653,-1.4056198333333334,-3.6202882916666663
1403638129525096960,-0.031415926535897934,-0.45308747381772796,-0.46844637123527805,9.4634172499999991,-1.5036863333333332,-3.5957716666666664
1403638129530096896,-0.030019663134302467,-0.44610615680975058,-0.4824090052512327,9.4879338749999995,-1.4464808749999998,-3.6448049166666663
1403638129535097088,-0.022340214425527419,-0.44052110320336874,-0.49776790266878279,9.422556208333333,-1.3811032083333332,-3.6611493333333334
1403638129540097024,-0.018849555921538759,-0.43493604959698695,-0.50963614158234416,9.5206227083333328,-1.2748645000000001,-3.702010375
1403638129545096960,-0.018849555921538759,-0.42795473258900957,-0.52290064389750113,9.5533115416666661,-1.0950759166666666,-3.7510436249999999
1403638129550096896,-0.020943951023931952,-0.4209734155810323,-0.5249950389998943,9.5369671250000003,-0.87442629166666663,-3.7919046666666665
1403638129555097088,-0.023736477827122883,-0.40840704496667313,-0.53895767301584896,9.5369671250000003,-0.76001537499999994,-3.8082490833333327
1403638129560097024,-0.0307177948351002,-0.39863320115550482,-0.54105206811824214,9.6023447916666651,-0.55571016666666662,-3.8654545416666664
1403638129565096960,-0.041189770347066175,-0.37768925013157295,-0.54733525342542177,9.5369671250000003,-0.42495483333333334,-3.906315583333333
1403638129570096896,-0.047472955654245766,-0.36023595761162963,-0.54803338512621946,9.4307284166666658,-0.34323275000000003,-3.906315583333333
1403638129575097088,-0.060039326268604934,-0.33999013828849539,-0.56129788744137632,9.4470728333333334,-0.35140495833333335,-3.97169325
1403638129580097024,-0.071907565182166372,-0.3239331091701475,-0.56199601914217412,9.3081452916666674,-0.32688833333333334,-3.9962098749999995
1403638129585096960,-0.076794487087750496,-0.31066860685499065,-0.55850536063818546,9.332661916666666,-0.392266,-4.0207264999999994
1403638129590096896,-0.07958701389094143,-0.29461157773664276,-0.54593899002382629,9.242767624999999,-0.58839899999999989,-4.0207264999999994
1403638129595097088,-0.07958701389094143,-0.2778564169174973,-0.53407075111026492,9.2754564583333323,-0.62108783333333339,-3.9962098749999995
1403638129600097024,-0.078888882190143686,-0.27087509990951991,-0.51033427328314196,9.2264232083333333,-0.67829329166666663,-3.9798654583333328
1403638129605096960,-0.074700091985357306,-0.25411993909037439,-0.4872959271568168,9.4797616666666666,-0.71915433333333334,-4.0534153333333327
1403638129610096896,-0.069115038378975438,-0.23596851486963336,-0.45448373721932339,9.5287949166666657,-0.71098212499999991,-4.0861041666666669
1403638129615097088,-0.064228116473391328,-0.1982694030265558,-0.43353978619539146,9.733100125,-0.61291562499999996,-4.1923428749999996
1403638129620097024,-0.05305800926062762,-0.16545721308906244,-0.40212385965949354,9.5614837499999989,-0.64560445833333324,-4.1351374166666668
1403638129625096960,-0.045378560551852569,-0.14102260356114182,-0.38746309394274114,9.6513780416666659,-0.51484912499999991,-4.1759984583333329
1403638129630096896,-0.042586033748661642,-0.11379546723003027,-0.36023595761162963,9.4634172499999991,-0.30237170833333332,-4.1433096249999997
1403638129635097088,-0.045378560551852569,-0.087964594300514204,-0.33300882128051806,9.5124504999999999,-0.089894291666666667,-4.2086872916666662
1403638129640097024,-0.05305800926062762,-0.060737457969402671,-0.30857421175259747,9.4307284166666658,0.0081722083333333334,-4.2658927499999999
1403638129645096960,-0.058643062867009467,-0.029321531433504733,-0.28344147052387908,9.5042782916666653,0.10623870833333333,-4.2086872916666662
1403638129650096896,-0.063529984772593598,0.0013962634015954637,-0.25621433419276757,9.2754564583333323,0.11441091666666667,-4.1433096249999997
1403638129655097088,-0.067718774977379978,0.018151424220741029,-0.22828906616085831,9.3163174999999985,0.057205458333333334,-4.1433096249999997
1403638129660097024,-0.070511301780570912,0.038397243543875248,-0.1982694030265558,9.1855621666666654,0.073549874999999987,-4.126965208333333
1403638129665096960,-0.07609635538695278,0.056548667764616284,-0.16545721308906244,9.2509398333333337,-0.0081722083333333334,-4.1514818333333334
1403638129670096896,-0.073303828583761846,0.08377580409572781,-0.13473941825396224,9.1038400833333331,-0.20430520833333332,-4.0861041666666669
1403638129675097088,-0.066322511575784518,0.099134701513277898,-0.1054178868204575,9.2019065833333329,-0.29419949999999995,-4.1351374166666668
1403638129680097024,-0.056548667764616284,0.1228711793404008,-0.070511301780570912,9.1528733333333321,-0.35957716666666667,-4.126965208333333
1403638129685096960,-0.044680428851054839,0.13962634015954636,-0.032114058236695664,9.2264232083333333,-0.37592158333333331,-4.1106207916666664
1403638129690096896,-0.037699111843077518,0.15707963267948966,-0.0041887902047863905,9.2019065833333329,-0.47398808333333331,-4.0942763749999997
1403638129695097088,-0.024434609527920613,0.16824973989225336,0.02722713633111154,9.3244897083333331,-0.4903325,-4.0861041666666669
1403638129700097024,-0.0153588974175501,0.1884955592153876,0.048171087355043489,9.3898673749999997,-0.49850470833333332,-4.0043820833333328
1403638129705096960,-0.0090757121103705145,0.19268434942017396,0.069813170079773182,9.4062117916666654,-0.48216029166666663,-3.97169325
1403638129710096896,0.00069813170079773186,0.20943951023931953,0.087964594300514204,9.3571785416666664,-0.3350605416666666,-3.97169325
1403638129715097088,0.0062831853071795866,0.21432643214490363,0.11030480872604163,9.2754564583333323,-0.31871612500000002,-3.947176625
1403638129720097024,0.010471975511965976,0.22130774915288098,0.12985249634837812,9.1610455416666667,-0.35957716666666667,-3.9635210416666666
1403638129725096960,0.013264502315156905,0.21223203704251048,0.14870205226991687,9.0793234583333327,-0.43312704166666666,-3.9798654583333328
1403638129730096896,0.020943951023931952,0.20245819323134223,0.16057029118347829,9.0466346249999994,-0.34323275000000003,-3.9390044166666667
1403638129735097088,0.02722713633111154,0.18221237390820799,0.17243853009703977,8.9812569583333328,-0.40043820833333332,-3.947176625
1403638129740097024,0.030019663134302467,0.16406094968746698,0.17383479349863523,9.0629790416666669,-0.38409379166666668,-3.9635210416666666
1403638129745096960,0.032114058236695664,0.13823007675795088,0.18081611050661253,9.0221180000000007,-0.4903325,-3.92266
1403638129750096896,0.038397243543875248,0.12077678423800758,0.17383479349863523,9.1365289166666663,-0.49850470833333332,-3.9308322083333329
1403638129755097088,0.040491638646268438,0.092851516206098328,0.16545721308906244,9.1283567083333317,-0.53119354166666666,-3.8981433750000001
1403638129760097024,0.041887902047863905,0.064228116473391328,0.15358897417550099,9.3244897083333331,-0.55571016666666662,-3.8654545416666664
1403638129765096960,0.047472955654245766,0.037000980142279788,0.14870205226991687,9.3244897083333331,-0.62108783333333339,-3.881798958333333
1403638129770096896,0.048869219055841226,0.013264502315156905,0.14102260356114182,9.6023447916666651,-0.59657120833333332,-3.9144877916666663
1403638129775097088,0.043982297150257102,-0.01117010721276371,0.1270599695451872,9.4961060833333324,-0.64560445833333324,-3.857282333333333
1403638129780097024,0.043982297150257102,-0.035604716740684328,0.11588986233242347,9.5614837499999989,-0.58839899999999989,-3.857282333333333
1403638129785096960,0.039095375244672985,-0.063529984772593598,0.10053096491487339,9.4307284166666658,-0.58022679166666657,-3.857282333333333
1403638129790096896,0.038397243543875248,-0.086568330898918744,0.08377580409572781,9.5206227083333328,-0.51484912499999991,-3.9308322083333329
1403638129795097088,0.037699111843077518,-0.10471975511965977,0.070511301780570912,9.3408341249999989,-0.53936574999999998,-3.9798654583333328
1403638129800097024,0.041887902047863905,-0.1270599695451872,0.05375614096142535,9.3980395833333326,-0.57205458333333326,-4.0452431249999998
1403638129805096960,0.044680428851054839,-0.15079644737231007,0.02652900463031381,9.2836286666666652,-0.6292600416666666,-4.0207264999999994
1403638129810096896,0.048869219055841226,-0.18360863730980345,0.0069813170079773184,9.3408341249999989,-0.62108783333333339,-4.037070916666667
1403638129815097088,0.046076692252650306,-0.20385445663293766,-0.008377580409572781,9.2591120416666666,-0.58022679166666657,-3.9962098749999995
1403638129820097024,0.050963614158234416,-0.228987197861656,-0.017453292519943295,9.3735229583333322,-0.57205458333333326,-4.0207264999999994
1403638129825096960,0.050265482457436693,-0.24644049038159932,-0.020245819323134219,9.4062117916666654,-0.63743225000000003,-4.0043820833333328
1403638129830096896,0.047472955654245766,-0.26808257310632899,-0.028623399732707,9.6350336250000002,-0.64560445833333324,-4.0615875416666665
1403638129835097088,0.050265482457436693,-0.2722713633111154,-0.037699111843077518,9.7085834999999996,-0.65377666666666667,-4.126965208333333
1403638129840097024,0.048171087355043489,-0.27646015351590175,-0.047472955654245766,9.822994416666667,-0.7028099166666667,-4.1514818333333334
1403638129845096960,0.045378560551852569,-0.26529004630313807,-0.055152404363020817,9.8801998750000006,-0.61291562499999996,-4.2005150833333333
1403638129850096896,0.05166174585903216,-0.26389378290154258,-0.057246799465414,9.872027666666666,-0.6292600416666666,-4.2005150833333333
1403638129855097088,0.050265482457436693,-0.25481807079117208,-0.064228116473391328,9.7903055833333319,-0.58022679166666657,-4.2332039166666666
1403638129860097024,0.05375614096142535,-0.25202554398798116,-0.062133721370998138,9.7984777916666665,-0.57205458333333326,-4.2577205416666661
1403638129865096960,0.052359877559829883,-0.24993114888558801,-0.062133721370998138,9.7821333750000008,-0.50667691666666659,-4.2904093749999994
1403638129870096896,0.05166174585903216,-0.24923301718479024,-0.061435589670200401,9.822994416666667,-0.47398808333333331,-4.3230982083333336
1403638129875097088,0.057246799465414,-0.23806290997202653,-0.063529984772593598,9.9455775416666654,-0.392266,-4.3803036666666664
1403638129880097024,0.050265482457436693,-0.23317598806644241,-0.067718774977379978,9.9864385833333333,-0.25333845833333329,-4.4211647083333325
1403638129885096960,0.043982297150257102,-0.21851522234969004,-0.069813170079773182,10.035471833333334,-0.16344416666666667,-4.4783701666666662
1403638129890096896,0.044680428851054839,-0.20385445663293766,-0.071209433481368656,10.051816249999998,-0.21247741666666667,-4.5028867916666666
1403638129895097088,0.038397243543875248,-0.18570303241219666,-0.08307767239493008,10.117193916666666,-0.17161637500000002,-4.5028867916666666
1403638129900097024,0.032812189937493394,-0.16755160819145562,-0.085172067497323284,10.043644041666665,-0.20430520833333332,-4.486542375
1403638129905096960,0.0307177948351002,-0.15079644737231007,-0.085870199198121014,10.100849499999999,-0.16344416666666667,-4.486542375
1403638129910096896,0.02583087292951608,-0.13473941825396224,-0.089360857702109678,10.051816249999998,-0.17978858333333333,-4.5192312083333332
1403638129915097088,0.028623399732707,-0.11309733552923257,-0.088662726001311934,10.100849499999999,-0.122583125,-4.5600922500000003
1403638129920097024,0.024434609527920613,-0.095644043009289262,-0.084473935796525554,9.9047164999999993,-0.22064962499999999,-4.4947145833333328
1403638129925096960,0.027925268031909273,-0.073303828583761846,-0.08307767239493008,10.019127416666667,-0.21247741666666667,-4.4947145833333328
1403638129930096896,0.02722713633111154,-0.049567350756638949,-0.070511301780570912,9.831166624999998,-0.24516625,-4.4211647083333325
1403638129935097088,0.031415926535897934,-0.029321531433504733,-0.045378560551852569,9.8965442916666664,-0.18796079166666665,-4.4456813333333329
1403638129940097024,0.034208453339088861,0.0013962634015954637,-0.029321531433504733,9.9128887083333321,-0.24516625,-4.3884758750000001
1403638129945096960,0.032812189937493394,0.0307177948351002,-0.017453292519943295,10.068160666666666,-0.21247741666666667,-4.3312704166666665
1403638129950096896,0.034906585039886591,0.063529984772593598,0.0069813170079773184,10.043644041666665,-0.28602729166666663,-4.2822371666666665
1403638129955097088,0.041189770347066175,0.099134701513277898,0.029321531433504733,10.100849499999999,-0.28602729166666663,-4.3394426250000002
1403638129960097024,0.043284165449459372,0.13823007675795088,0.059341194567807204,9.9210609166666668,-0.28602729166666663,-4.3230982083333336
1403638129965096960,0.048171087355043489,0.17034413499464657,0.090757121103705138,9.9537497499999983,-0.29419949999999995,-4.3476148333333331
1403638129970096896,0.05445427266222308,0.19687313962496036,0.1228711793404008,9.7494445416666657,-0.22882183333333334,-4.355787041666666
1403638129975097088,0.061435589670200401,0.21642082724729686,0.14940018397071461,9.7249279166666671,-0.21247741666666667,-4.4293369166666663
1403638129980097024,0.062831853071795868,0.24085543677521751,0.17732545200262387,9.5696559583333336,-0.14709974999999997,-4.4129924999999997
1403638129985096960,0.064926248174189058,0.24993114888558801,0.20455258833373544,9.5451393333333332,-0.040861041666666667,-4.4538535416666667
1403638129990096896,0.068416906678177722,0.27017696820872222,0.2366666465704311,9.4470728333333334,-0.065377666666666667,-4.4293369166666663
1403638129995097088,0.072605696882964116,0.28204520712228365,0.25970499269675623,9.5124504999999999,0.0,-4.4701979583333324
1403638130000097024,0.068416906678177722,0.29880036794142922,0.27855454861829498,9.5614837499999989,0.024516625,-4.4211647083333325
1403638130005096960,0.071907565182166372,0.31695179216217023,0.29461157773664276,9.6677224583333334,-0.0081722083333333334,-4.4211647083333325
1403638130010096896,0.068416906678177722,0.34557519189487723,0.30019663134302466,9.7412723333333329,-0.0081722083333333334,-4.3884758750000001
1403638130015097088,0.070511301780570912,0.36861353802120245,0.30647981665020424,9.7412723333333329,0.032688833333333334,-4.3394426250000002
1403638130020097024,0.063529984772593598,0.39025562074593206,0.29880036794142922,9.7085834999999996,0.14709974999999997,-4.2577205416666661
1403638130025096960,0.05305800926062762,0.40352012306108898,0.3057816849494065,9.5533115416666661,0.081722083333333334,-4.1759984583333329
1403638130030096896,0.046774823953448029,0.41259583517145948,0.30368728984701332,9.4634172499999991,0.081722083333333334,-4.126965208333333
1403638130035097088,0.043284165449459372,0.41329396687225728,0.31206487025658608,9.2100787916666658,-0.089894291666666667,-4.0615875416666665
1403638130040097024,0.046076692252650306,0.40770891326587533,0.32183871406775438,9.1038400833333331,-0.22064962499999999,-4.0534153333333327
1403638130045096960,0.046076692252650306,0.38536869884034791,0.33231068957972032,8.9976013749999986,-0.3350605416666666,-4.0043820833333328
1403638130050096896,0.050963614158234416,0.37070793312359557,0.3302162944773272,9.0874956666666655,-0.40861041666666664,-3.9962098749999995
1403638130055097088,0.059341194567807204,0.35325464060365225,0.3344050846821135,9.0302902083333318,-0.58022679166666657,-3.9390044166666667
1403638130060097024,0.069813170079773182,0.34348079679248406,0.33231068957972032,9.2182509999999986,-0.60474341666666664,-3.9880376666666666
1403638130065096960,0.080983277292536876,0.33789574318610222,0.33091442617812489,9.2100787916666658,-0.7028099166666667,-3.9308322083333329
1403638130070096896,0.087964594300514204,0.33510321638291124,0.3239331091701475,9.2918008749999998,-0.64560445833333324,-3.9553488333333329
1403638130075097088,0.094945911308491532,0.33510321638291124,0.314857397059777,9.193734375,-0.6701210833333332,-3.8409379166666664
1403638130080097024,0.10332349171806432,0.33649947978450673,0.29949849964222697,9.2591120416666666,-0.62108783333333339,-3.8164212916666664
1403638130085096960,0.10821041362364843,0.32812189937493397,0.28902652413026098,9.0793234583333327,-0.6292600416666666,-3.7673880416666665
1403638130090096896,0.11379546723003027,0.31695179216217023,0.27157323161031771,9.0057735833333332,-0.53936574999999998,-3.7265269999999999
1403638130095097088,0.11030480872604163,0.30508355324860881,0.25761059759436306,8.8586738333333326,-0.57205458333333326,-3.7101825833333333
1403638130100097024,0.11519173063162574,0.27576202181510412,0.24155356847601517,8.8995348749999987,-0.58839899999999989,-3.7101825833333333
1403638130105096960,0.11239920382843484,0.25132741228718347,0.22270401255447644,8.744262916666667,-0.65377666666666667,-3.6938381666666662
1403638130110096896,0.11239920382843484,0.22130774915288098,0.21013764194011728,8.8668460416666655,-0.67829329166666663,-3.6856659583333333
1403638130115097088,0.11170107212763709,0.19268434942017396,0.20036379812894903,8.7851239583333331,-0.76818758333333337,-3.6284604999999996
1403638130120097024,0.11379546723003027,0.16126842288427606,0.19058995431778078,9.0057735833333332,-0.79270420833333322,-3.67749375
1403638130125096960,0.12077678423800758,0.14451326206513049,0.17941984710501704,8.9812569583333328,-0.81722083333333329,-3.6039438749999997
1403638130130096896,0.12217304763960307,0.12007865253720987,0.16196655458507375,9.0793234583333327,-0.73549874999999998,-3.5957716666666664
1403638130135097088,0.1228711793404008,0.10192722831646883,0.14241886696273731,9.0384624166666665,-0.65377666666666667,-3.6121160833333334
1403638130140097024,0.12077678423800758,0.08237954069413235,0.12356931104119852,9.0548068333333322,-0.64560445833333324,-3.5957716666666664
1403638130145096960,0.11030480872604163,0.075398223686155036,0.10053096491487339,9.0711512499999998,-0.57205458333333326,-3.587599458333333
1403638130150096896,0.1096066770252439,0.064228116473391328,0.074001960284559576,9.1120122916666659,-0.6701210833333332,-3.6202882916666663
1403638130155097088,0.11239920382843484,0.048869219055841226,0.057246799465414,9.0302902083333318,-0.71098212499999991,-3.6202882916666663
1403638130160097024,0.114493598930828,0.028623399732707,0.037000980142279788,9.0711512499999998,-0.75184316666666662,-3.6121160833333334
1403638130165096960,0.11588986233242347,0.018849555921538759,0.0090757121103705145,9.1692177499999996,-0.76001537499999994,-3.6693215416666662
1403638130170096896,0.11938052083641214,0.010471975511965976,-0.0062831853071795866,9.1855621666666654,-0.69463770833333327,-3.7673880416666665
1403638130175097088,0.11938052083641214,0.0069813170079773184,-0.020943951023931952,9.1855621666666654,-0.62108783333333339,-3.7510436249999999
1403638130180097024,0.1165879940332212,-0.0034906585039886592,-0.032114058236695664,9.0793234583333327,-0.55571016666666662,-3.7265269999999999
1403638130185096960,0.11379546723003027,-0.0153588974175501,-0.041189770347066175,9.1692177499999996,-0.4494714583333333,-3.7265269999999999
1403638130190096896,0.1075122819228507,-0.023736477827122883,-0.048869219055841226,9.0874956666666655,-0.44129924999999998,-3.702010375
1403638130195097088,0.1075122819228507,-0.022340214425527419,-0.058643062867009467,9.2345954166666662,-0.40861041666666664,-3.7183547916666662
1403638130200097024,0.10611601852125524,-0.018849555921538759,-0.058643062867009467,9.2345954166666662,-0.4903325,-3.7101825833333333
1403638130205096960,0.10611601852125524,-0.01117010721276371,-0.060737457969402671,9.3163174999999985,-0.46581587499999999,-3.7183547916666662
1403638130210096896,0.10192722831646883,-0.01117010721276371,-0.05375614096142535,9.1773899583333325,-0.52302133333333334,-3.7101825833333333
1403638130215097088,0.10053096491487339,-0.0076794487087750501,-0.044680428851054839,9.3163174999999985,-0.51484912499999991,-3.7428714166666661
1403638130220097024,0.10262536001726656,0.0069813170079773184,-0.017453292519943295,9.2836286666666652,-0.61291562499999996,-3.7510436249999999
1403638130225096960,0.1075122819228507,0.019547687622336492,0.0055850536063818549,9.4143839999999983,-0.7028099166666667,-3.7837324583333327
1403638130230096896,0.11519173063162574,0.028623399732707,0.029321531433504733,9.2754564583333323,-0.77635979166666658,-3.7592158333333332
1403638130235097088,0.12636183784438945,0.045378560551852569,0.050265482457436693,9.3816951666666668,-0.73549874999999998,-3.8164212916666664
1403638130240097024,0.1340412865531645,0.064228116473391328,0.069115038378975438,9.2999730833333327,-0.66194887499999999,-3.7919046666666665
1403638130245096960,0.13683381335635544,0.07819075048934597,0.08307767239493008,9.5124504999999999,-0.48216029166666663,-3.8736267500000001
1403638130250096896,0.13962634015954636,0.10681415022205297,0.10681415022205297,9.422556208333333,-0.36774937499999999,-3.8899711666666663
1403638130255097088,0.14172073526193954,0.1361356816555577,0.1340412865531645,9.5451393333333332,-0.26968287499999999,-3.9144877916666663
1403638130260097024,0.13543754995475996,0.16755160819145562,0.15079644737231007,9.422556208333333,-0.20430520833333332,-3.8491101249999997
1403638130265096960,0.12636183784438945,0.19268434942017396,0.16615534478986016,9.4797616666666666,-0.024516625,-3.8654545416666664
1403638130270096896,0.114493598930828,0.21362830044410594,0.18081611050661253,9.3735229583333322,-0.016344416666666667,-3.8654545416666664
1403638130275097088,0.10122909661567112,0.228987197861656,0.19477874452256716,9.3816951666666668,-0.057205458333333334,-3.8899711666666663
1403638130280097024,0.090058989402907408,0.23876104167282428,0.21781709064889232,9.1773899583333325,-0.17161637500000002,-3.8082490833333327
1403638130285096960,0.08168140899333462,0.24294983187761068,0.2366666465704311,9.2182509999999986,-0.25333845833333329,-3.7673880416666665
1403638130290096896,0.078888882190143686,0.24993114888558801,0.26040312439755398,9.1610455416666667,-0.29419949999999995,-3.7183547916666662
1403638130295097088,0.07749261878854824,0.25621433419276757,0.28902652413026098,9.2100787916666658,-0.37592158333333331,-3.6529771249999996
1403638130300097024,0.076794487087750496,0.2631956512007449,0.30927234345339516,9.2182509999999986,-0.49850470833333332,-3.5957716666666664
1403638130305096960,0.074700091985357306,0.26598817800393582,0.3344050846821135,9.2182509999999986,-0.5475379583333333,-3.5712550416666669
1403638130310096896,0.071907565182166372,0.27855454861829498,0.36023595761162963,9.1773899583333325,-0.6701210833333332,-3.587599458333333
1403638130315097088,0.078888882190143686,0.29321531433504738,0.38536869884034791,9.1365289166666663,-0.76818758333333337,-3.5712550416666669
1403638130320097024,0.080983277292536876,0.30019663134302466,0.40491638646268446,9.0466346249999994,-0.83356525000000004,-3.5467384166666669
1403638130325096960,0.094945911308491532,0.30019663134302466,0.41887902047863906,8.9240514999999991,-0.90711512499999991,-3.4731885416666666
1403638130330096896,0.10192722831646883,0.29530970943744062,0.41957715217943675,8.9240514999999991,-0.94797616666666662,-3.4568441249999995
1403638130335097088,0.11379546723003027,0.28902652413026098,0.42376594238422322,8.9976013749999986,-1.0460426666666667,-3.4159830833333329
1403638130340097024,0.1270599695451872,0.2869321290278678,0.42167154728182998,9.2345954166666662,-0.97249279166666658,-3.4650163333333333
1403638130345096960,0.13543754995475996,0.28972465583105872,0.42376594238422322,9.2509398333333337,-0.88259849999999995,-3.5222217916666665
1403638130350096896,0.13753194505715316,0.29251718263424964,0.41748275707704363,9.3244897083333331,-0.69463770833333327,-3.5794272499999997
1403638130355097088,0.13334315485236678,0.28483773392547462,0.41050144006906625,9.0302902083333318,-0.65377666666666667,-3.4977051666666665
1403638130360097024,0.12845623294678266,0.26808257310632899,0.39165188414752755,9.0139457916666661,-0.56388237500000005,-3.5385662083333331
1403638130365096960,0.12077678423800758,0.2527236756887789,0.36442474781641598,8.7769517500000003,-0.47398808333333331,-3.4731885416666666
1403638130370096896,0.11309733552923257,0.22759093446006054,0.3385938748868999,8.7769517500000003,-0.392266,-3.4813607499999994
1403638130375097088,0.099832833214075656,0.20804324683772407,0.31415926535897931,8.5236132916666651,-0.40861041666666664,-3.4159830833333329
1403638130380097024,0.088662726001311934,0.18500490071139891,0.28902652413026098,8.5644743333333331,-0.47398808333333331,-3.4159830833333329
1403638130385096960,0.08377580409572781,0.15289084247470325,0.26110125609835172,8.4092023749999996,-0.76001537499999994,-3.3179165833333331
1403638130390096896,0.080285145591739146,0.12566370614359174,0.24085543677521751,8.5563021250000002,-0.97249279166666658,-3.2607111249999998
1403638130395097088,0.08237954069413235,0.1054178868204575,0.22130774915288098,8.5481299166666673,-1.32389775,-3.1299557916666663
1403638130400097024,0.093549647906896058,0.087266462599716474,0.2059488517353309,8.8259849999999993,-1.5200307499999999,-3.1054391666666663
1403638130405096960,0.1075122819228507,0.07749261878854824,0.1982694030265558,8.8913626666666659,-1.6916471249999998,-3.0809225416666663
1403638130410096896,0.12426744274199628,0.073303828583761846,0.19268434942017396,9.0629790416666669,-1.7488525833333333,-3.0890947499999997
1403638130415097088,0.13823007675795088,0.07749261878854824,0.1884955592153876,9.0221180000000007,-1.6507860833333332,-3.0645781249999997
1403638130420097024,0.14730578886832138,0.07609635538695278,0.17872171540421936,9.1038400833333331,-1.4955141249999999,-3.0972669583333334
1403638130425096960,0.15638150097869194,0.071907565182166372,0.16894787159305111,8.9158792916666663,-1.4301364583333334,-3.1544724166666662
1403638130430096896,0.16057029118347829,0.067020643276582248,0.15009831567151233,8.9485681249999995,-1.2666922916666667,-3.2688833333333331
1403638130435097088,0.16057029118347829,0.065624379874986788,0.12496557444279401,8.8178127916666664,-1.1767979999999998,-3.2933999583333331
1403638130440097024,0.16545721308906244,0.05166174585903216,0.094945911308491532,8.7687795416666656,-1.0133538333333332,-3.3996386666666667
1403638130445096960,0.16057029118347829,0.038397243543875248,0.055152404363020817,8.6870574583333333,-0.80904862499999997,-3.4650163333333333
1403638130450096896,0.15079644737231007,0.018151424220741029,0.024434609527920613,8.7197462916666666,-0.65377666666666667,-3.5222217916666665
1403638130455097088,0.14172073526193954,0.0041887902047863905,-0.018849555921538759,8.7851239583333331,-0.61291562499999996,-3.5549106249999998
1403638130460097024,0.12147491593880534,-0.016755160819145562,-0.055850536063818547,8.793296166666666,-0.64560445833333324,-3.5385662083333331
1403638130465096960,0.10821041362364843,-0.033510321638291124,-0.092153384505300612,8.8178127916666664,-0.71098212499999991,-3.4813607499999994
1403638130470096896,0.092851516206098328,-0.060039326268604934,-0.12217304763960307,8.8178127916666664,-0.71915433333333334,-3.3914664583333329
1403638130475097088,0.073303828583761846,-0.086568330898918744,-0.1556833692778942,8.9485681249999995,-0.69463770833333327,-3.3506054166666663
1403638130480097024,0.046774823953448029,-0.10402162341886204,-0.17802358370342161,9.1447011249999992,-0.80087641666666665,-3.3506054166666663
1403638130485096960,0.032812189937493394,-0.10192722831646883,-0.20455258833373544,9.2918008749999998,-0.88259849999999995,-3.3179165833333331
1403638130490096896,0.029321531433504733,-0.095644043009289262,-0.22759093446006054,9.3571785416666664,-0.99700941666666665,-3.3179165833333331
1403638130495097088,0.031415926535897934,-0.080983277292536876,-0.24923301718479024,9.5369671250000003,-1.1032481249999999,-3.3506054166666663
1403638130500097024,0.023038346126325153,-0.08307767239493008,-0.2583087292951608,9.0793234583333327,-1.1277647500000001,-3.2852277500000002
1403638130505096960,0.013264502315156905,-0.094945911308491532,-0.26459191460234038,8.793296166666666,-0.83356525000000004,-3.3342610000000001
1403638130510096896,0.0048869219055841231,-0.099832833214075656,-0.23736477827122882,8.6216797916666668,-0.71098212499999991,-3.4078108749999996
1403638130515097088,0.0027925268031909274,-0.10192722831646883,-0.21851522234969004,8.8913626666666659,-0.97249279166666658,-3.5467384166666669
1403638130520097024,0.008377580409572781,-0.10890854532444616,-0.21921335405048781,8.7360907083333323,-1.3075533333333333,-3.4895329583333332
1403638130525096960,0.0090757121103705145,-0.11728612573401893,-0.23945917337362199,8.5644743333333331,-0.86625408333333331,-3.4241552916666667
1403638130530096896,0.0153588974175501,-0.12845623294678266,-0.21293016874330817,8.4500634166666657,-0.53936574999999998,-3.366949833333333
1403638130535097088,0.0041887902047863905,-0.12566370614359174,-0.19408061282176942,9.0302902083333318,-0.5475379583333333,-3.5467384166666669
1403638130540097024,-0.013264502315156905,-0.1096066770252439,-0.19058995431778078,9.0466346249999994,-0.77635979166666658,-3.5549106249999998
1403638130545096960,-0.008377580409572781,-0.090058989402907408,-0.17034413499464657,9.0221180000000007,-0.73549874999999998,-3.3996386666666667
1403638130550096896,0.0020943951023931952,-0.072605696882964116,-0.14241886696273731,8.9158792916666663,-0.80904862499999997,-3.2280222916666665
1403638130555097088,-0.0013962634015954637,-0.059341194567807204,-0.13334315485236678,9.3081452916666674,-0.67829329166666663,-3.3587776250000001
1403638130560097024,-0.008377580409572781,-0.033510321638291124,-0.1228711793404008,9.4552450416666662,-0.51484912499999991,-3.4813607499999994
1403638130565096960,-0.018849555921538759,-0.0013962634015954637,-0.099134701513277898,9.4552450416666662,-0.50667691666666659,-3.4568441249999995
1403638130570096896,-0.024434609527920613,0.025132741228718346,-0.086568330898918744,9.2999730833333327,-0.57205458333333326,-3.2933999583333331
1403638130575097088,-0.032114058236695664,0.038397243543875248,-0.059341194567807204,9.3898673749999997,-0.4903325,-3.4486719166666666
1403638130580097024,-0.037699111843077518,0.072605696882964116,-0.024434609527920613,9.5287949166666657,-0.59657120833333332,-3.6284604999999996
1403638130585096960,-0.036302848441482058,0.11519173063162574,0.00069813170079773186,9.5696559583333336,-0.60474341666666664,-3.6121160833333334
1403638130590096896,-0.034208453339088861,0.14521139376592823,0.016057029118347832,9.3735229583333322,-0.50667691666666659,-3.5058773749999999
1403638130595097088,-0.034208453339088861,0.1668534764906579,0.032812189937493394,9.242767624999999,-0.38409379166666668,-3.5467384166666669
1403638130600097024,-0.027925268031909273,0.18709929581379212,0.043284165449459372,9.0793234583333327,-0.35957716666666667,-3.6366327083333334
1403638130605096960,-0.023736477827122883,0.20176006153054449,0.049567350756638949,9.0384624166666665,-0.40043820833333332,-3.6121160833333334
1403638130610096896,-0.018849555921538759,0.21851522234969004,0.052359877559829883,8.9322237083333338,-0.37592158333333331,-3.5222217916666665
1403638130615097088,-0.014660765716752367,0.21711895894809458,0.064926248174189058,8.9812569583333328,-0.3350605416666666,-3.5712550416666669
1403638130620097024,-0.011868238913561441,0.23177972466484695,0.071209433481368656,9.1610455416666667,-0.22064962499999999,-3.6121160833333334
1403638130625096960,-0.0090757121103705145,0.24085543677521751,0.08377580409572781,9.1201845000000006,-0.196133,-3.5467384166666669
1403638130630096896,-0.0076794487087750501,0.25202554398798116,0.094945911308491532,9.1038400833333331,-0.122583125,-3.4568441249999995
1403638130635097088,-0.012566370614359173,0.2527236756887789,0.12147491593880534,8.9485681249999995,-0.17978858333333333,-3.3015721666666664
1403638130640097024,-0.016755160819145562,0.24923301718479024,0.13892820845874865,9.0956678750000002,-0.22064962499999999,-3.3179165833333331
1403638130645096960,-0.017453292519943295,0.24993114888558801,0.1626646862858715,9.1528733333333321,-0.37592158333333331,-3.2933999583333331
1403638130650096896,-0.018849555921538759,0.25761059759436306,0.17872171540421936,9.3816951666666668,-0.40861041666666664,-3.3260887916666664
1403638130655097088,-0.016755160819145562,0.26249751949994715,0.2059488517353309,9.332661916666666,-0.42495483333333334,-3.3015721666666664
1403638130660097024,-0.0076794487087750501,0.27646015351590175,0.23457225146803787,9.3735229583333322,-0.53119354166666666,-3.3260887916666664
1403638130665096960,-0.0020943951023931952,0.28204520712228365,0.26529004630313807,9.1447011249999992,-0.73549874999999998,-3.2607111249999998
1403638130670096896,0.011868238913561441,0.28902652413026098,0.29810223624063148,9.1447011249999992,-0.81722083333333329,-3.2933999583333331
1403638130675097088,0.0307177948351002,0.2960078411382383,0.33300882128051806,8.9567403333333324,-0.85808187499999988,-3.2607111249999998
1403638130680097024,0.045378560551852569,0.29810223624063148,0.3672172746196069,9.0629790416666669,-0.84173745833333324,-3.2607111249999998
1403638130685096960,0.060737457969402671,0.30647981665020424,0.39653880605311159,8.8014683749999989,-0.84990966666666667,-3.1789890416666662
1403638130690096896,0.072605696882964116,0.30997047515419296,0.42376594238422322,8.7360907083333323,-0.71915433333333334,-3.0645781249999997
1403638130695097088,0.08377580409572781,0.31415926535897931,0.44959681531373935,8.572646541666666,-0.71915433333333334,-2.9501672083333332
1403638130700097024,0.090757121103705138,0.31206487025658608,0.47403142484165989,8.7360907083333323,-0.7436709583333333,-2.9501672083333332
1403638130705096960,0.095644043009289262,0.31555552876057474,0.49288098076319864,8.6788852500000004,-0.81722083333333329,-2.9174783749999995
1403638130710096896,0.10332349171806432,0.32253684576855213,0.51033427328314196,8.9158792916666663,-0.84173745833333324,-2.9501672083333332
1403638130715097088,0.11100294042683936,0.33719761148530447,0.52290064389750113,8.793296166666666,-0.8253930416666666,-2.852100708333333
1403638130720097024,0.11379546723003027,0.3295181627765294,0.5354670145118603,8.7360907083333323,-0.8253930416666666,-2.9011339583333333
1403638130725096960,0.11798425743481668,0.33231068957972032,0.54524085832302849,8.6298519999999996,-0.88259849999999995,-2.8766173333333334
1403638130730096896,0.12356931104119852,0.314857397059777,0.55641096553579228,8.4173745833333324,-1.0133538333333332,-2.8684451249999996
1403638130735097088,0.13334315485236678,0.29461157773664276,0.56618480934696047,8.433719,-1.054214875,-2.852100708333333
1403638130740097024,0.14032447186034408,0.27157323161031771,0.57526052145733098,8.5154410833333323,-1.0378704583333334,-2.9828560416666661
1403638130745096960,0.15289084247470325,0.25062928058638573,0.57107173125254451,8.392857958333332,-1.0950759166666666,-2.9828560416666661
1403638130750096896,0.16336281798666924,0.22689280275926282,0.56827920444935376,8.3846857499999992,-1.1032481249999999,-2.9011339583333333
1403638130755097088,0.17104226669544431,0.20874137853852182,0.55082591192941033,8.3683413333333334,-0.98883720833333322,-2.8357562916666668
1403638130760097024,0.16894787159305111,0.18500490071139891,0.53267448770866932,8.5317854999999998,-0.86625408333333331,-2.8439284999999996
1403638130765096960,0.1647590813882647,0.17732545200262387,0.5068436147791533,8.7606073333333327,-0.71098212499999991,-2.8847895416666667
1403638130770096896,0.15498523757709648,0.16964600329384885,0.47961647844804178,8.7687795416666656,-0.7436709583333333,-2.8766173333333334
1403638130775097088,0.14381513036433274,0.17104226669544431,0.4391248398017733,8.7279184999999995,-0.81722083333333329,-2.8112396666666668
1403638130780097024,0.13543754995475996,0.16057029118347829,0.40212385965949354,8.5563021250000002,-0.88259849999999995,-2.803067458333333
1403638130785096960,0.13194689145077129,0.15009831567151233,0.36372661611561824,8.6461964166666672,-0.84173745833333324,-2.8439284999999996
1403638130790096896,0.12566370614359174,0.13194689145077129,0.32742376767413622,8.5154410833333323,-0.9398039583333333,-2.8929617499999996
1403638130795097088,0.11728612573401893,0.11938052083641214,0.28483773392547462,8.572646541666666,-0.93163174999999998,-2.9256505833333333
1403638130800097024,0.11170107212763709,0.099832833214075656,0.2527236756887789,8.3519969166666659,-1.0215260416666667,-2.9174783749999995
1403638130805096960,0.10890854532444616,0.087964594300514204,0.22759093446006054,8.3356525000000001,-1.0133538333333332,-2.9665116249999999
1403638130810096896,0.10262536001726656,0.074700091985357306,0.21013764194011728,8.0496252083333317,-0.97249279166666658,-2.9256505833333333
1403638130815097088,0.10122909661567112,0.060737457969402671,0.18989182261698306,8.0577974166666664,-0.83356525000000004,-2.9665116249999999
1403638130820097024,0.094247779607693802,0.046774823953448029,0.17383479349863523,7.9025254583333329,-0.86625408333333331,-2.9501672083333332
1403638130825096960,0.092153384505300612,0.036302848441482058,0.15219271077390556,8.0087641666666656,-0.84173745833333324,-2.9665116249999999
1403638130830096896,0.090058989402907408,0.035604716740684328,0.13823007675795088,7.8453200000000001,-0.93163174999999998,-2.8684451249999996
1403638130835097088,0.091455252804502868,0.032812189937493394,0.13124875974997358,7.9025254583333329,-0.96432058333333326,-2.8112396666666668
1403638130840097024,0.092851516206098328,0.038397243543875248,0.12845623294678266,7.7472535000000002,-0.9398039583333333,-2.7458620000000002
1403638130845096960,0.092153384505300612,0.040491638646268438,0.13194689145077129,7.8371477916666663,-0.88259849999999995,-2.7295175833333332
1403638130850096896,0.091455252804502868,0.05305800926062762,0.13473941825396224,7.763597916666666,-0.96432058333333326,-2.7376897916666665
1403638130855097088,0.089360857702109678,0.060737457969402671,0.14241886696273731,7.8861810416666662,-1.0133538333333332,-2.7785508333333331
1403638130860097024,0.091455252804502868,0.073303828583761846,0.143116998663535,7.7717701249999998,-1.0950759166666666,-2.7376897916666665
1403638130865096960,0.098436569812480182,0.07958701389094143,0.14800392056911915,7.8126311666666659,-1.0051816249999999,-2.7785508333333331
1403638130870096896,0.1054178868204575,0.08237954069413235,0.15289084247470325,7.6573592083333333,-0.98066500000000001,-2.7376897916666665
1403638130875097088,0.10611601852125524,0.084473935796525554,0.15777776438028737,7.8126311666666659,-0.80904862499999997,-2.7376897916666665
1403638130880097024,0.099134701513277898,0.093549647906896058,0.15847589608108512,7.8698366249999996,-0.6292600416666666,-2.803067458333333
1403638130885096960,0.08237954069413235,0.10681415022205297,0.15498523757709648,8.0087641666666656,-0.47398808333333331,-2.8194118749999997
1403638130890096896,0.059341194567807204,0.12426744274199628,0.14940018397071461,8.0577974166666664,-0.44129924999999998,-2.7703786249999998
1403638130895097088,0.034906585039886591,0.14521139376592823,0.15289084247470325,8.0659696249999993,-0.40861041666666664,-2.7458620000000002
1403638130900097024,0.0090757121103705145,0.17453292519943295,0.14870205226991687,8.1313472916666658,-0.41678262500000002,-2.7376897916666665
1403638130905096960,-0.0153588974175501,0.19757127132575814,0.14451326206513049,8.1231750833333329,-0.50667691666666659,-2.6723121249999999
1403638130910096896,-0.043284165449459372,0.23387411976724018,0.13753194505715316,8.1558639166666662,-0.64560445833333324,-2.6968287499999999
1403638130915097088,-0.059341194567807204,0.25970499269675623,0.1361356816555577,8.204897166666667,-0.79270420833333322,-2.6477955
1403638130920097024,-0.069813170079773182,0.2960078411382383,0.13543754995475996,8.1476917083333333,-0.8253930416666666,-2.6559677083333328
1403638130925096960,-0.075398223686155036,0.32323497746934982,0.14172073526193954,7.9433864999999999,-0.83356525000000004,-2.557901208333333
1403638130930096896,-0.080285145591739146,0.34976398209966358,0.14241886696273731,7.9106976666666657,-0.77635979166666658,-2.5006957499999998
1403638130935097088,-0.092153384505300612,0.36442474781641598,0.14590952546672595,7.673703624999999,-0.84173745833333324,-2.4598347083333332
1403638130940097024,-0.10611601852125524,0.38117990863556156,0.14172073526193954,7.7145646666666661,-0.80904862499999997,-2.5088679583333335
1403638130945096960,-0.10821041362364843,0.40282199136029123,0.14521139376592823,7.5919815416666658,-0.87442629166666663,-2.3699404166666667
1403638130950096896,-0.11309733552923257,0.41608649367544814,0.14241886696273731,7.6982202499999994,-0.80904862499999997,-2.3617682083333333
1403638130955097088,-0.114493598930828,0.43214352279379603,0.14660765716752369,7.5674649166666654,-0.77635979166666658,-2.2637017083333331
1403638130960097024,-0.1228711793404008,0.4488986836129415,0.14451326206513049,7.583809333333333,-0.73549874999999998,-2.2473572916666664
1403638130965096960,-0.12845623294678266,0.45867252742410985,0.15777776438028737,7.4121929583333328,-0.83356525000000004,-2.1411185833333333
1403638130970096896,-0.13264502315156904,0.46216318592809846,0.15219271077390556,7.5266038749999993,-1.0051816249999999,-2.1166019583333333
1403638130975097088,-0.1291543646475804,0.46006879082570523,0.15498523757709648,7.4530539999999998,-1.2666922916666667,-2.0593964999999996
1403638130980097024,-0.12147491593880534,0.45518186892012108,0.15917402778188286,7.583809333333333,-1.3565865833333333,-2.0185354583333335
1403638130985096960,-0.11798425743481668,0.44959681531373935,0.16615534478986016,7.4530539999999998,-1.4301364583333334,-1.9122967499999999
1403638130990096896,-0.11100294042683936,0.43772857640017787,0.17104226669544431,7.583809333333333,-1.4628252916666666,-1.8714357083333331
1403638130995097088,-0.10053096491487339,0.42865286428980726,0.17732545200262387,7.5674649166666654,-1.5772362083333331,-1.7733692083333334
1403638131000097024,-0.090757121103705138,0.42027528388023455,0.1864011641129944,7.6982202499999994,-1.569064,-1.7488525833333333
1403638131005096960,-0.08168140899333462,0.41957715217943675,0.19617500792416265,7.6573592083333333,-1.5772362083333331,-1.6671305000000001
1403638131010096896,-0.07609635538695278,0.40980330836826856,0.19687313962496036,7.6982202499999994,-1.4709975,-1.6998193333333333
1403638131015097088,-0.072605696882964116,0.39653880605311159,0.19687313962496036,7.5592927083333334,-1.4301364583333334,-1.6834749166666665
1403638131020097024,-0.065624379874986788,0.37210419652519106,0.19198621771937624,7.5592927083333334,-1.3811032083333332,-1.6834749166666665
1403638131025096960,-0.062133721370998138,0.35395277230445005,0.18011797880581482,7.534776083333333,-1.3974476249999999,-1.7406803749999997
1403638131030096896,-0.065624379874986788,0.3302162944773272,0.1647590813882647,7.7063924583333332,-1.299381125,-1.7978858333333332
1403638131035097088,-0.066322511575784518,0.31904618726456346,0.14590952546672595,7.673703624999999,-1.1686257916666667,-1.7733692083333334
1403638131040097024,-0.066322511575784518,0.29461157773664276,0.12985249634837812,7.6001537499999996,-1.0133538333333332,-1.7079915416666664
1403638131045096960,-0.075398223686155036,0.27366762671271089,0.11100294042683936,7.4612262083333336,-0.87442629166666663,-1.7079915416666664
1403638131050096896,-0.085870199198121014,0.24294983187761068,0.094247779607693802,7.3631597083333329,-0.8253930416666666,-1.6099250416666664
1403638131055097088,-0.097738438111682452,0.21711895894809458,0.067718774977379978,7.4285373749999994,-0.8253930416666666,-1.6589582916666665
1403638131060097024,-0.10192722831646883,0.19058995431778078,0.050963614158234416,7.3386430833333325,-1.0296982499999998,-1.7079915416666664
1403638131065096960,-0.10053096491487339,0.16964600329384885,0.020245819323134219,7.4367095833333323,-1.1522813749999998,-1.7161637499999998
1403638131070096896,-0.10192722831646883,0.13823007675795088,0.0027925268031909274,7.3958485416666662,-1.3647587916666666,-1.7079915416666664
1403638131075097088,-0.090058989402907408,0.1096066770252439,-0.013264502315156905,7.3958485416666662,-1.5527195833333332,-1.7079915416666664
1403638131080097024,-0.071209433481368656,0.073303828583761846,-0.018151424220741029,7.3468152916666662,-1.7325081666666666,-1.6998193333333333
1403638131085096960,-0.05305800926062762,0.042586033748661642,-0.025132741228718346,7.534776083333333,-1.8224024583333331,-1.7570247916666666
1403638131090096896,-0.040491638646268438,0.011868238913561441,-0.029321531433504733,7.583809333333333,-1.8959523333333332,-1.7651969999999999
1403638131095097088,-0.032812189937493394,-0.018151424220741029,-0.034208453339088861,7.7799423333333326,-1.7978858333333332,-1.838746875
1403638131100097024,-0.02652900463031381,-0.049567350756638949,-0.039793506945470715,7.7227368749999989,-1.7488525833333333,-1.8142302499999998
1403638131105096960,-0.02583087292951608,-0.078888882190143686,-0.048869219055841226,7.8616644166666658,-1.593580625,-1.8142302499999998
1403638131110096896,-0.02583087292951608,-0.10611601852125524,-0.060737457969402671,7.7881145416666664,-1.4955141249999999,-1.7733692083333334
1403638131115097088,-0.025132741228718346,-0.12496557444279401,-0.067718774977379978,7.9188698749999995,-1.3647587916666666,-1.8060580416666667
1403638131120097024,-0.034906585039886591,-0.15009831567151233,-0.078888882190143686,7.8371477916666663,-1.299381125,-1.7651969999999999
1403638131125096960,-0.035604716740684328,-0.16964600329384885,-0.096342174710086978,7.9597309166666657,-1.2340034583333332,-1.8469190833333331
1403638131130096896,-0.040491638646268438,-0.19757127132575814,-0.11100294042683936,7.7962867500000002,-1.2340034583333332,-1.8469190833333331
1403638131135097088,-0.044680428851054839,-0.22200588085367873,-0.12985249634837812,7.9352142916666661,-1.2912089166666665,-1.9122967499999999
1403638131140097024,-0.043982297150257102,-0.24644049038159932,-0.15009831567151233,7.9025254583333329,-1.32389775,-1.9531577916666665
1403638131145096960,-0.046076692252650306,-0.27157323161031771,-0.16126842288427606,8.1150028750000001,-1.2912089166666665,-2.0757409166666667
1403638131150096896,-0.043284165449459372,-0.29042278753185646,-0.18430676901060122,8.2130693749999999,-1.32389775,-2.083913125
1403638131155097088,-0.042586033748661642,-0.30717794835100198,-0.2059488517353309,8.4092023749999996,-1.3729310000000001,-2.1901518333333332
1403638131160097024,-0.041887902047863905,-0.3204424506661589,-0.22689280275926282,8.4909244583333336,-1.4873419166666666,-2.2228406666666665
1403638131165096960,-0.034906585039886591,-0.33510321638291124,-0.24644049038159932,8.6298519999999996,-1.4955141249999999,-2.2310128749999998
1403638131170096896,-0.031415926535897934,-0.33999013828849539,-0.27017696820872222,8.6788852500000004,-1.3892754166666665,-2.2391850833333331
1403638131175097088,-0.02583087292951608,-0.3490658503988659,-0.28553586562627226,8.7606073333333327,-1.2421756666666668,-2.3127349583333334
1403638131180097024,-0.034906585039886591,-0.35395277230445005,-0.30159289474462014,8.7360907083333323,-1.1522813749999998,-2.3617682083333333
1403638131185096960,-0.041189770347066175,-0.35953782591083189,-0.314857397059777,8.7034018749999991,-1.0378704583333334,-2.378112625
1403638131190096896,-0.048869219055841226,-0.3672172746196069,-0.32812189937493397,8.5971631666666664,-0.87442629166666663,-2.4108014583333333
1403638131195097088,-0.058643062867009467,-0.3818780403363593,-0.32882003107573171,8.4664078333333332,-0.86625408333333331,-2.4598347083333332
1403638131200097024,-0.069115038378975438,-0.38885935734433663,-0.3385938748868999,8.5317854999999998,-0.7436709583333333,-2.5006957499999998
1403638131205096960,-0.075398223686155036,-0.4056145181634821,-0.33999013828849539,8.5317854999999998,-0.84173745833333324,-2.5333845833333335
1403638131210096896,-0.074001960284559576,-0.41399209857305497,-0.35325464060365225,8.7034018749999991,-0.87442629166666663,-2.5742456250000001
1403638131215097088,-0.075398223686155036,-0.41887902047863906,-0.35395277230445005,8.7197462916666666,-0.98066500000000001,-2.5987622500000001
1403638131220097024,-0.069115038378975438,-0.41957715217943675,-0.35255650890285456,8.8668460416666655,-0.97249279166666658,-2.6396232916666666
1403638131225096960,-0.062133721370998138,-0.41399209857305497,-0.33719761148530447,8.8259849999999993,-0.94797616666666662,-2.6723121249999999
1403638131230096896,-0.05375614096142535,-0.40212385965949354,-0.32882003107573171,8.8995348749999987,-0.84173745833333324,-2.7213453750000003
1403638131235097088,-0.045378560551852569,-0.39863320115550482,-0.31904618726456346,8.8259849999999993,-0.88259849999999995,-2.7622064166666664
1403638131240097024,-0.039793506945470715,-0.38536869884034791,-0.30647981665020424,8.9403959166666649,-0.81722083333333329,-2.8357562916666668
1403638131245096960,-0.035604716740684328,-0.38467056713955022,-0.2869321290278678,8.8423294166666651,-0.8253930416666666,-2.827584083333333
1403638131250096896,-0.02722713633111154,-0.36931166972200014,-0.27436575841350858,8.9894291666666657,-0.80904862499999997,-2.8766173333333334
1403638131255097088,-0.022340214425527419,-0.35116024550125913,-0.25202554398798116,8.9158792916666663,-0.84173745833333324,-2.8929617499999996
1403638131260097024,-0.0153588974175501,-0.33789574318610222,-0.23108159296404923,9.0466346249999994,-0.69463770833333327,-2.9011339583333333
1403638131265096960,-0.01117010721276371,-0.32114058236695658,-0.20943951023931953,8.9485681249999995,-0.6701210833333332,-2.9011339583333333
1403638131270096896,-0.0097738438111682462,-0.30019663134302466,-0.18430676901060122,9.1120122916666659,-0.6292600416666666,-2.9419949999999999
1403638131275097088,-0.008377580409572781,-0.27925268031909273,-0.17174039839624203,9.0302902083333318,-0.6292600416666666,-2.9746838333333332
1403638131280097024,-0.0020943951023931952,-0.25970499269675623,-0.15149457907310779,9.1855621666666654,-0.60474341666666664,-3.0645781249999997
1403638131285096960,0.0069813170079773184,-0.23108159296404923,-0.13334315485236678,9.0302902083333318,-0.69463770833333327,-3.0809225416666663
1403638131290096896,0.012566370614359173,-0.21781709064889232,-0.11938052083641214,9.1365289166666663,-0.6701210833333332,-3.1054391666666663
1403638131295097088,0.018849555921538759,-0.20176006153054449,-0.10471975511965977,9.1365289166666663,-0.68646550000000006,-3.138128
1403638131300097024,0.021642082724729686,-0.19058995431778078,-0.090058989402907408,9.2754564583333323,-0.52302133333333334,-3.162644625
1403638131305096960,0.019547687622336492,-0.17662732030182612,-0.080983277292536876,9.1855621666666654,-0.38409379166666668,-3.2198500833333328
1403638131310096896,0.020245819323134219,-0.16406094968746698,-0.059341194567807204,9.1365289166666663,-0.24516625,-3.2035056666666666
1403638131315097088,0.0048869219055841231,-0.15079644737231007,-0.048869219055841226,9.0629790416666669,-0.11441091666666667,-3.2280222916666665
1403638131320097024,-0.0090757121103705145,-0.14381513036433274,-0.037000980142279788,9.0302902083333318,-0.032688833333333334,-3.3260887916666664
1403638131325096960,-0.025132741228718346,-0.12496557444279401,-0.032114058236695664,9.0711512499999998,-0.016344416666666667,-3.3506054166666663
1403638131330096896,-0.039095375244672985,-0.11379546723003027,-0.018849555921538759,9.0384624166666665,-0.17161637500000002,-3.342433208333333
1403638131335097088,-0.050265482457436693,-0.090757121103705138,-0.0153588974175501,9.0139457916666661,-0.30237170833333332,-3.3097443750000002
1403638131340097024,-0.05375614096142535,-0.071209433481368656,-0.0020943951023931952,8.9976013749999986,-0.35957716666666667,-3.2443667083333327
1403638131345096960,-0.055850536063818547,-0.048869219055841226,0.011868238913561441,8.9649125416666671,-0.45764366666666667,-3.2525389166666665
1403638131350096896,-0.058643062867009467,-0.029321531433504733,0.032812189937493394,8.9322237083333338,-0.58839899999999989,-3.2361944999999999
1403638131355097088,-0.055850536063818547,-0.00069813170079773186,0.050963614158234416,8.9730847499999999,-0.61291562499999996,-3.2035056666666666
1403638131360097024,-0.05445427266222308,0.0153588974175501,0.074700091985357306,8.883190458333333,-0.72732654166666666,-3.2443667083333327
1403638131365096960,-0.052359877559829883,0.028623399732707,0.094247779607693802,8.8423294166666651,-0.71915433333333334,-3.2607111249999998
1403638131370096896,-0.048869219055841226,0.029321531433504733,0.11728612573401893,8.6461964166666672,-0.76818758333333337,-3.2361944999999999
1403638131375097088,-0.046774823953448029,0.030019663134302467,0.13194689145077129,8.744262916666667,-0.73549874999999998,-3.2198500833333328
1403638131380097024,-0.045378560551852569,0.028623399732707,0.143116998663535,8.5889909583333335,-0.79270420833333322,-3.1708168333333329
1403638131385096960,-0.042586033748661642,0.02652900463031381,0.15847589608108512,8.7769517500000003,-0.76001537499999994,-3.1708168333333329
1403638131390096896,-0.038397243543875248,0.024434609527920613,0.16406094968746698,8.7197462916666666,-0.8253930416666666,-3.1136113750000001
1403638131395097088,-0.02652900463031381,0.02722713633111154,0.16545721308906244,8.9322237083333338,-0.8253930416666666,-3.1299557916666663
1403638131400097024,-0.024434609527920613,0.032114058236695664,0.16336281798666924,8.9567403333333324,-0.80904862499999997,-3.0727503333333335
1403638131405096960,-0.02583087292951608,0.045378560551852569,0.1556833692778942,9.2019065833333329,-0.72732654166666666,-3.1299557916666663
1403638131410096896,-0.02652900463031381,0.057246799465414,0.13962634015954636,9.1528733333333321,-0.71098212499999991,-3.1299557916666663
1403638131415097088,-0.032812189937493394,0.072605696882964116,0.1228711793404008,9.2672842499999994,-0.68646550000000006,-3.2361944999999999
1403638131420097024,-0.034208453339088861,0.085870199198121014,0.10122909661567112,9.1120122916666659,-0.63743225000000003,-3.162644625
1403638131425096960,-0.044680428851054839,0.087964594300514204,0.078888882190143686,9.1528733333333321,-0.57205458333333326,-3.2035056666666666
1403638131430096896,-0.050963614158234416,0.087964594300514204,0.052359877559829883,9.0793234583333327,-0.51484912499999991,-3.1871612499999999
1403638131435097088,-0.063529984772593598,0.088662726001311934,0.031415926535897934,9.0629790416666669,-0.392266,-3.2361944999999999
1403638131440097024,-0.07609635538695278,0.088662726001311934,-0.010471975511965976,8.9812569583333328,-0.40043820833333332,-3.2035056666666666
1403638131445096960,-0.08237954069413235,0.07819075048934597,-0.039095375244672985,8.9567403333333324,-0.37592158333333331,-3.2280222916666665
1403638131450096896,-0.095644043009289262,0.068416906678177722,-0.074700091985357306,8.8913626666666659,-0.28602729166666663,-3.1953334583333328
1403638131455097088,-0.1054178868204575,0.050963614158234416,-0.10262536001726656,8.8586738333333326,-0.22882183333333334,-3.2035056666666666
1403638131460097024,-0.11798425743481668,0.039095375244672985,-0.13683381335635544,8.6952296666666662,-0.24516625,-3.1299557916666663
1403638131465096960,-0.13334315485236678,0.019547687622336492,-0.15149457907310779,8.5481299166666673,-0.3105439166666667,-3.0645781249999997
1403638131470096896,-0.14241886696273731,0.0055850536063818549,-0.15847589608108512,8.4745800416666661,-0.40861041666666664,-2.9828560416666661
1403638131475097088,-0.15009831567151233,-0.018849555921538759,-0.15289084247470325,8.4010301666666667,-0.59657120833333332,-2.9011339583333333
1403638131480097024,-0.15358897417550099,-0.032812189937493394,-0.14590952546672595,8.5236132916666651,-0.71915433333333334,-2.8439284999999996
1403638131485096960,-0.14800392056911915,-0.047472955654245766,-0.12775810124598494,8.5317854999999998,-0.95614837499999994,-2.8439284999999996
1403638131490096896,-0.13823007675795088,-0.056548667764616284,-0.11309733552923257,8.6135075833333321,-1.0787315,-2.8194118749999997
1403638131495097088,-0.12077678423800758,-0.05445427266222308,-0.078888882190143686,8.5317854999999998,-1.201314625,-2.803067458333333
1403638131500097024,-0.094945911308491532,-0.060039326268604934,-0.05375614096142535,8.5236132916666651,-1.2421756666666668,-2.8112396666666668
1403638131505096960,-0.07609635538695278,-0.070511301780570912,-0.021642082724729686,8.4990966666666665,-1.2748645000000001,-2.8112396666666668
1403638131510096896,-0.056548667764616284,-0.08168140899333462,-0.0034906585039886592,8.6380242083333325,-1.1849702083333333,-2.9093061666666666
1403638131515097088,-0.033510321638291124,-0.087266462599716474,0.019547687622336492,8.5808187499999988,-1.1277647500000001,-2.852100708333333
1403638131520097024,-0.016057029118347832,-0.094945911308491532,0.036302848441482058,8.7851239583333331,-0.9398039583333333,-2.9174783749999995
1403638131525096960,-0.0097738438111682462,-0.099832833214075656,0.05166174585903216,8.7034018749999991,-0.80087641666666665,-2.9093061666666666
1403638131530096896,-0.0013962634015954637,-0.1075122819228507,0.060039326268604934,8.834157208333334,-0.59657120833333332,-2.9011339583333333
