#timestamp [ns],w_RS_S_x [rad s^-1],w_RS_S_y [rad s^-1],w_RS_S_z [rad s^-1],a_RS_S_x [m s^-2],a_RS_S_y [m s^-2],a_RS_S_z [m s^-2]
1403715523912143104,-0.00069813170079773186,0.019547687622336492,0.076794487087750496,9.2182509999999986,0.30237170833333332,-3.1544724166666662
1403715523917143040,-0.00069813170079773186,0.020943951023931952,0.072605696882964116,9.3163174999999985,0.29419949999999995,-3.2525389166666665
1403715523922142976,-0.0034906585039886592,0.023038346126325153,0.074700091985357306,9.2100787916666658,0.29419949999999995,-3.1789890416666662
1403715523927142912,-0.0027925268031909274,0.017453292519943295,0.07819075048934597,9.3244897083333331,0.30237170833333332,-3.2607111249999998
1403715523932143104,-0.0034906585039886592,0.022340214425527419,0.080285145591739146,9.2264232083333333,0.26968287499999999,-3.1953334583333328
1403715523937143040,-0.0027925268031909274,0.021642082724729686,0.080983277292536876,9.3244897083333331,0.34323275000000003,-3.2198500833333328
1403715523942142976,-0.00069813170079773186,0.024434609527920613,0.07749261878854824,9.2264232083333333,0.34323275000000003,-3.1789890416666662
1403715523947142912,0.0,0.018849555921538759,0.07819075048934597,9.2999730833333327,0.35957716666666667,-3.1789890416666662
1403715523952143104,0.0,0.020943951023931952,0.078888882190143686,9.2345954166666662,0.3350605416666666,-3.2116778749999999
1403715523957143040,-0.0020943951023931952,0.020245819323134219,0.07749261878854824,9.3081452916666674,0.36774937499999999,-3.2035056666666666
1403715523962142976,-0.0027925268031909274,0.024434609527920613,0.07958701389094143,9.2019065833333329,0.30237170833333332,-3.138128
1403715523967142912,-0.0013962634015954637,0.020245819323134219,0.076794487087750496,9.2918008749999998,0.34323275000000003,-3.1708168333333329
1403715523972143104,-0.0013962634015954637,0.021642082724729686,0.07609635538695278,9.2345954166666662,0.3105439166666667,-3.2035056666666666
1403715523977143040,-0.0034906585039886592,0.020245819323134219,0.075398223686155036,9.2918008749999998,0.35140495833333335,-3.2198500833333328
1403715523982142976,-0.0048869219055841231,0.023736477827122883,0.076794487087750496,9.2591120416666666,0.3105439166666667,-3.1871612499999999
1403715523987142912,-0.0027925268031909274,0.019547687622336492,0.075398223686155036,9.2754564583333323,0.34323275000000003,-3.1953334583333328
1403715523992143104,-0.0034906585039886592,0.020943951023931952,0.07609635538695278,9.2264232083333333,0.31871612500000002,-3.2116778749999999
1403715523997143040,-0.0034906585039886592,0.017453292519943295,0.074700091985357306,9.242767624999999,0.35140495833333335,-3.2198500833333328
1403715524002142976,-0.0034906585039886592,0.018849555921538759,0.080285145591739146,9.2264232083333333,0.29419949999999995,-3.1708168333333329
1403715524007142912,-0.0048869219055841231,0.018849555921538759,0.07819075048934597,9.2836286666666652,0.35957716666666667,-3.2116778749999999
1403715524012143104,-0.0034906585039886592,0.023736477827122883,0.075398223686155036,9.2264232083333333,0.3350605416666666,-3.2035056666666666
1403715524017143040,0.00069813170079773186,0.016755160819145562,0.078888882190143686,9.2672842499999994,0.3350605416666666,-3.2035056666666666
1403715524022142976,-0.0027925268031909274,0.016755160819145562,0.078888882190143686,9.242767624999999,0.30237170833333332,-3.2035056666666666
1403715524027142912,-0.0013962634015954637,0.016755160819145562,0.07819075048934597,9.2754564583333323,0.35140495833333335,-3.1871612499999999
1403715524032143104,-0.00069813170079773186,0.022340214425527419,0.07819075048934597,9.2591120416666666,0.31871612500000002,-3.1871612499999999
1403715524037143040,-0.0013962634015954637,0.023038346126325153,0.07609635538695278,9.2836286666666652,0.31871612500000002,-3.2035056666666666
1403715524042142976,0.0020943951023931952,0.023736477827122883,0.08377580409572781,9.242767624999999,0.30237170833333332,-3.1708168333333329
1403715524047142912,-0.0013962634015954637,0.018151424220741029,0.076794487087750496,9.3244897083333331,0.3350605416666666,-3.2116778749999999
1403715524052143104,-0.0027925268031909274,0.021642082724729686,0.076794487087750496,9.2672842499999994,0.30237170833333332,-3.1953334583333328
1403715524057143040,-0.0020943951023931952,0.020245819323134219,0.078888882190143686,9.2836286666666652,0.34323275000000003,-3.2035056666666666
1403715524062142976,0.0027925268031909274,0.019547687622336492,0.078888882190143686,9.2509398333333337,0.3105439166666667,-3.1708168333333329
1403715524067142912,0.0027925268031909274,0.0153588974175501,0.074001960284559576,9.2836286666666652,0.34323275000000003,-3.1953334583333328
1403715524072143104,-0.0013962634015954637,0.018849555921538759,0.07958701389094143,9.2345954166666662,0.26968287499999999,-3.2035056666666666
1403715524077143040,-0.0020943951023931952,0.013962634015954637,0.074700091985357306,9.3081452916666674,0.32688833333333334,-3.1953334583333328
1403715524082142976,-0.00069813170079773186,0.018151424220741029,0.075398223686155036,9.1855621666666654,0.32688833333333334,-3.1953334583333328
1403715524087142912,0.0,0.016755160819145562,0.07609635538695278,9.2836286666666652,0.35140495833333335,-3.1871612499999999
1403715524092143104,-0.00069813170079773186,0.018151424220741029,0.078888882190143686,9.2100787916666658,0.27785508333333331,-3.162644625
1403715524097143040,-0.00069813170079773186,0.018151424220741029,0.07819075048934597,9.2672842499999994,0.31871612500000002,-3.1789890416666662
1403715524102142976,-0.0013962634015954637,0.022340214425527419,0.07819075048934597,9.2019065833333329,0.27785508333333331,-3.1708168333333329
1403715524107142912,-0.0027925268031909274,0.018151424220741029,0.07609635538695278,9.242767624999999,0.35957716666666667,-3.2116778749999999
1403715524112143104,-0.0027925268031909274,0.020943951023931952,0.078888882190143686,9.2264232083333333,0.34323275000000003,-3.2198500833333328
1403715524117143040,-0.0034906585039886592,0.018151424220741029,0.080285145591739146,9.193734375,0.3350605416666666,-3.1789890416666662
1403715524122142976,-0.0027925268031909274,0.024434609527920613,0.07958701389094143,9.2019065833333329,0.30237170833333332,-3.2035056666666666
1403715524127142912,-0.00069813170079773186,0.021642082724729686,0.07609635538695278,9.2672842499999994,0.3350605416666666,-3.1953334583333328
1403715524132143104,-0.0027925268031909274,0.018151424220741029,0.080983277292536876,9.2264232083333333,0.32688833333333334,-3.1871612499999999
1403715524137143040,-0.0020943951023931952,0.018849555921538759,0.08168140899333462,9.2754564583333323,0.30237170833333332,-3.2280222916666665
1403715524142142976,-0.0013962634015954637,0.023038346126325153,0.07958701389094143,9.2264232083333333,0.32688833333333334,-3.2116778749999999
1403715524147142912,-0.0013962634015954637,0.019547687622336492,0.075398223686155036,9.2918008749999998,0.34323275000000003,-3.2525389166666665
1403715524152143104,-0.00069813170079773186,0.022340214425527419,0.07749261878854824,9.2754564583333323,0.29419949999999995,-3.2116778749999999
1403715524157143040,-0.00069813170079773186,0.019547687622336492,0.078888882190143686,9.2591120416666666,0.37592158333333331,-3.1789890416666662
1403715524162142976,-0.0020943951023931952,0.020245819323134219,0.078888882190143686,9.2345954166666662,0.29419949999999995,-3.2198500833333328
1403715524167142912,-0.0020943951023931952,0.018151424220741029,0.07609635538695278,9.2264232083333333,0.31871612500000002,-3.1463002083333333
1403715524172143104,-0.0027925268031909274,0.020943951023931952,0.07819075048934597,9.2509398333333337,0.26151066666666667,-3.1953334583333328
1403715524177143040,-0.0027925268031909274,0.020245819323134219,0.076794487087750496,9.2672842499999994,0.35140495833333335,-3.2198500833333328
1403715524182142976,-0.0020943951023931952,0.019547687622336492,0.07819075048934597,9.2836286666666652,0.29419949999999995,-3.1789890416666662
1403715524187142912,-0.0027925268031909274,0.020943951023931952,0.076794487087750496,9.2591120416666666,0.32688833333333334,-3.1708168333333329
1403715524192143104,0.0,0.020943951023931952,0.07819075048934597,9.2264232083333333,0.31871612500000002,-3.2035056666666666
1403715524197143040,0.0020943951023931952,0.019547687622336492,0.076794487087750496,9.2836286666666652,0.31871612500000002,-3.1789890416666662
1403715524202142976,0.0020943951023931952,0.020245819323134219,0.07749261878854824,9.2182509999999986,0.29419949999999995,-3.1953334583333328
1403715524207142912,0.00069813170079773186,0.016755160819145562,0.080285145591739146,9.2836286666666652,0.3350605416666666,-3.1953334583333328
1403715524212143104,-0.00069813170079773186,0.018849555921538759,0.08237954069413235,9.2264232083333333,0.35140495833333335,-3.1708168333333329
1403715524217143040,-0.00069813170079773186,0.020245819323134219,0.078888882190143686,9.2672842499999994,0.32688833333333334,-3.1789890416666662
1403715524222142976,-0.0020943951023931952,0.022340214425527419,0.07609635538695278,9.2754564583333323,0.28602729166666663,-3.1871612499999999
1403715524227142912,-0.0013962634015954637,0.018849555921538759,0.07958701389094143,9.2836286666666652,0.3105439166666667,-3.1953334583333328
1403715524232143104,-0.0055850536063818549,0.020245819323134219,0.078888882190143686,9.2509398333333337,0.26151066666666667,-3.162644625
1403715524237143040,-0.0027925268031909274,0.016755160819145562,0.075398223686155036,9.2999730833333327,0.31871612500000002,-3.1789890416666662
1403715524242142976,-0.0020943951023931952,0.023736477827122883,0.07958701389094143,9.242767624999999,0.30237170833333332,-3.1871612499999999
1403715524247142912,-0.0020943951023931952,0.016755160819145562,0.072605696882964116,9.2999730833333327,0.34323275000000003,-3.1953334583333328
1403715524252143104,0.0013962634015954637,0.020943951023931952,0.07749261878854824,9.2836286666666652,0.3105439166666667,-3.2443667083333327
1403715524257143040,-0.0013962634015954637,0.017453292519943295,0.075398223686155036,9.3408341249999989,0.35957716666666667,-3.2361944999999999
1403715524262142976,-0.00069813170079773186,0.021642082724729686,0.07609635538695278,9.2672842499999994,0.28602729166666663,-3.1953334583333328
1403715524267142912,-0.0020943951023931952,0.020943951023931952,0.07609635538695278,9.2754564583333323,0.35140495833333335,-3.1953334583333328
1403715524272143104,-0.0020943951023931952,0.022340214425527419,0.07819075048934597,9.2264232083333333,0.3105439166666667,-3.2035056666666666
1403715524277143040,-0.0027925268031909274,0.017453292519943295,0.07609635538695278,9.2591120416666666,0.32688833333333334,-3.1789890416666662
1403715524282142976,-0.0027925268031909274,0.018849555921538759,0.074001960284559576,9.2100787916666658,0.26968287499999999,-3.2198500833333328
1403715524287142912,-0.0013962634015954637,0.018849555921538759,0.071907565182166372,9.2264232083333333,0.31871612500000002,-3.162644625
1403715524292143104,-0.00069813170079773186,0.021642082724729686,0.080285145591739146,9.2019065833333329,0.3105439166666667,-3.162644625
1403715524297143040,-0.0020943951023931952,0.020943951023931952,0.074700091985357306,9.2999730833333327,0.34323275000000003,-3.2198500833333328
1403715524302142976,-0.0034906585039886592,0.018849555921538759,0.076794487087750496,9.242767624999999,0.27785508333333331,-3.1953334583333328
1403715524307142912,-0.0020943951023931952,0.016057029118347832,0.071907565182166372,9.2836286666666652,0.32688833333333334,-3.2361944999999999
1403715524312143104,-0.0020943951023931952,0.020245819323134219,0.078888882190143686,9.2509398333333337,0.31871612500000002,-3.2035056666666666
1403715524317143040,-0.0027925268031909274,0.016755160819145562,0.076794487087750496,9.2264232083333333,0.3350605416666666,-3.1871612499999999
1403715524322142976,-0.0034906585039886592,0.017453292519943295,0.080983277292536876,9.2345954166666662,0.28602729166666663,-3.2198500833333328
1403715524327142912,-0.0027925268031909274,0.018849555921538759,0.080285145591739146,9.2836286666666652,0.35140495833333335,-3.1708168333333329
1403715524332143104,0.0,0.019547687622336492,0.07749261878854824,9.2264232083333333,0.26968287499999999,-3.1789890416666662
1403715524337143040,-0.00069813170079773186,0.017453292519943295,0.075398223686155036,9.2999730833333327,0.35957716666666667,-3.1708168333333329
1403715524342142976,-0.0013962634015954637,0.020943951023931952,0.076794487087750496,9.242767624999999,0.24516625,-3.2035056666666666
1403715524347142912,-0.0055850536063818549,0.0153588974175501,0.07819075048934597,9.2999730833333327,0.30237170833333332,-3.2035056666666666
1403715524352143104,-0.0048869219055841231,0.020245819323134219,0.08237954069413235,9.2345954166666662,0.30237170833333332,-3.2198500833333328
1403715524357143040,-0.0041887902047863905,0.020943951023931952,0.075398223686155036,9.2836286666666652,0.35140495833333335,-3.2198500833333328
1403715524362142976,-0.0062831853071795866,0.024434609527920613,0.07819075048934597,9.2100787916666658,0.28602729166666663,-3.162644625
1403715524367142912,-0.0034906585039886592,0.017453292519943295,0.074700091985357306,9.242767624999999,0.3350605416666666,-3.1953334583333328
1403715524372143104,-0.0013962634015954637,0.020943951023931952,0.078888882190143686,9.2264232083333333,0.3105439166666667,-3.1708168333333329
1403715524377143040,0.00069813170079773186,0.018151424220741029,0.076794487087750496,9.2345954166666662,0.31871612500000002,-3.1953334583333328
1403715524382142976,0.0,0.023038346126325153,0.07819075048934597,9.193734375,0.27785508333333331,-3.1789890416666662
1403715524387142912,0.0013962634015954637,0.016755160819145562,0.075398223686155036,9.2999730833333327,0.31871612500000002,-3.2361944999999999
1403715524392143104,-0.00069813170079773186,0.020943951023931952,0.07749261878854824,9.2100787916666658,0.29419949999999995,-3.138128
1403715524397143040,-0.0013962634015954637,0.018849555921538759,0.07819075048934597,9.2999730833333327,0.3105439166666667,-3.2116778749999999
1403715524402142976,-0.00069813170079773186,0.021642082724729686,0.08237954069413235,9.2264232083333333,0.26968287499999999,-3.1789890416666662
1403715524407142912,-0.0020943951023931952,0.017453292519943295,0.07749261878854824,9.2672842499999994,0.32688833333333334,-3.2198500833333328
1403715524412143104,-0.0027925268031909274,0.019547687622336492,0.07609635538695278,9.2345954166666662,0.31871612500000002,-3.138128
1403715524417143040,-0.0034906585039886592,0.020245819323134219,0.07819075048934597,9.3244897083333331,0.30237170833333332,-3.1953334583333328
1403715524422142976,0.0,0.018849555921538759,0.07609635538695278,9.2754564583333323,0.32688833333333334,-3.2035056666666666
1403715524427142912,-0.0027925268031909274,0.018849555921538759,0.074001960284559576,9.2836286666666652,0.3350605416666666,-3.1789890416666662
1403715524432143104,-0.0020943951023931952,0.020943951023931952,0.07819075048934597,9.2672842499999994,0.30237170833333332,-3.1708168333333329
1403715524437143040,-0.0020943951023931952,0.020943951023931952,0.071907565182166372,9.3163174999999985,0.30237170833333332,-3.2035056666666666
1403715524442142976,-0.0027925268031909274,0.019547687622336492,0.080983277292536876,9.242767624999999,0.3350605416666666,-3.1544724166666662
1403715524447142912,-0.0048869219055841231,0.021642082724729686,0.071209433481368656,9.2918008749999998,0.26968287499999999,-3.2035056666666666
1403715524452143104,-0.0034906585039886592,0.020245819323134219,0.07819075048934597,9.2591120416666666,0.29419949999999995,-3.1544724166666662
1403715524457143040,-0.0041887902047863905,0.022340214425527419,0.07819075048934597,9.2999730833333327,0.30237170833333332,-3.2116778749999999
1403715524462142976,-0.00069813170079773186,0.020245819323134219,0.07958701389094143,9.2591120416666666,0.3105439166666667,-3.1953334583333328
1403715524467142912,-0.00069813170079773186,0.022340214425527419,0.074001960284559576,9.2754564583333323,0.30237170833333332,-3.2035056666666666
1403715524472143104,0.0013962634015954637,0.022340214425527419,0.080285145591739146,9.2509398333333337,0.3350605416666666,-3.162644625
1403715524477143040,-0.0013962634015954637,0.018849555921538759,0.08237954069413235,9.2918008749999998,0.3350605416666666,-3.1871612499999999
1403715524482142976,-0.0013962634015954637,0.020245819323134219,0.08168140899333462,9.2182509999999986,0.32688833333333334,-3.2035056666666666
1403715524487142912,-0.0013962634015954637,0.022340214425527419,0.08237954069413235,9.2918008749999998,0.31871612500000002,-3.2280222916666665
1403715524492143104,-0.00069813170079773186,0.018849555921538759,0.08377580409572781,9.2591120416666666,0.30237170833333332,-3.2116778749999999
1403715524497143040,-0.0041887902047863905,0.019547687622336492,0.07749261878854824,9.2754564583333323,0.30237170833333332,-3.2116778749999999
1403715524502142976,-0.0034906585039886592,0.017453292519943295,0.07609635538695278,9.2754564583333323,0.28602729166666663,-3.1871612499999999
1403715524507142912,-0.0048869219055841231,0.022340214425527419,0.074700091985357306,9.2591120416666666,0.32688833333333334,-3.2116778749999999
1403715524512143104,-0.00069813170079773186,0.016057029118347832,0.076794487087750496,9.2591120416666666,0.35140495833333335,-3.2116778749999999
1403715524517143040,-0.00069813170079773186,0.019547687622336492,0.075398223686155036,9.242767624999999,0.3350605416666666,-3.2198500833333328
1403715524522142976,-0.0034906585039886592,0.018849555921538759,0.074700091985357306,9.2672842499999994,0.34323275000000003,-3.1953334583333328
1403715524527142912,-0.0048869219055841231,0.020943951023931952,0.07609635538695278,9.2345954166666662,0.29419949999999995,-3.2280222916666665
1403715524532143104,-0.0020943951023931952,0.018151424220741029,0.073303828583761846,9.3081452916666674,0.3350605416666666,-3.2035056666666666
1403715524537143040,-0.0034906585039886592,0.021642082724729686,0.07609635538695278,9.2836286666666652,0.29419949999999995,-3.2116778749999999
1403715524542142976,-0.0041887902047863905,0.018849555921538759,0.07819075048934597,9.242767624999999,0.31871612500000002,-3.1871612499999999
1403715524547142912,-0.0048869219055841231,0.020943951023931952,0.080285145591739146,9.2509398333333337,0.31871612500000002,-3.2116778749999999
1403715524552143104,-0.0027925268031909274,0.020943951023931952,0.07958701389094143,9.2672842499999994,0.34323275000000003,-3.2280222916666665
1403715524557143040,-0.0013962634015954637,0.024434609527920613,0.08168140899333462,9.2509398333333337,0.30237170833333332,-3.1953334583333328
1403715524562142976,-0.00069813170079773186,0.019547687622336492,0.078888882190143686,9.2345954166666662,0.3105439166666667,-3.1953334583333328
1403715524567142912,-0.0020943951023931952,0.019547687622336492,0.075398223686155036,9.193734375,0.32688833333333334,-3.2443667083333327
1403715524572143104,-0.0055850536063818549,0.016057029118347832,0.07819075048934597,9.2999730833333327,0.34323275000000003,-3.2361944999999999
1403715524577143040,-0.00069813170079773186,0.020943951023931952,0.07749261878854824,9.2509398333333337,0.29419949999999995,-3.1953334583333328
1403715524582142976,0.0,0.020245819323134219,0.073303828583761846,9.2999730833333327,0.3105439166666667,-3.2116778749999999
1403715524587142912,-0.00069813170079773186,0.022340214425527419,0.07958701389094143,9.3163174999999985,0.27785508333333331,-3.2198500833333328
1403715524592143104,-0.0027925268031909274,0.013962634015954637,0.07609635538695278,9.332661916666666,0.34323275000000003,-3.2280222916666665
1403715524597143040,0.0013962634015954637,0.021642082724729686,0.07958701389094143,9.2999730833333327,0.30237170833333332,-3.2198500833333328
1403715524602142976,-0.0013962634015954637,0.020245819323134219,0.080983277292536876,9.3244897083333331,0.28602729166666663,-3.2361944999999999
1403715524607142912,-0.0027925268031909274,0.021642082724729686,0.07749261878854824,9.242767624999999,0.31871612500000002,-3.1871612499999999
1403715524612143104,-0.0041887902047863905,0.020943951023931952,0.074700091985357306,9.332661916666666,0.3350605416666666,-3.2443667083333327
1403715524617143040,-0.0020943951023931952,0.023038346126325153,0.080983277292536876,9.2509398333333337,0.3105439166666667,-3.2198500833333328
1403715524622142976,-0.0020943951023931952,0.025132741228718346,0.07749261878854824,9.2836286666666652,0.34323275000000003,-3.2443667083333327
1403715524627142912,-0.0013962634015954637,0.018849555921538759,0.080285145591739146,9.2591120416666666,0.29419949999999995,-3.2035056666666666
1403715524632143104,0.0,0.018849555921538759,0.075398223686155036,9.332661916666666,0.32688833333333334,-3.2280222916666665
1403715524637143040,-0.0020943951023931952,0.021642082724729686,0.078888882190143686,9.2182509999999986,0.27785508333333331,-3.1789890416666662
1403715524642142976,-0.0034906585039886592,0.017453292519943295,0.07749261878854824,9.2918008749999998,0.32688833333333334,-3.1953334583333328
1403715524647142912,-0.00069813170079773186,0.020943951023931952,0.08168140899333462,9.2345954166666662,0.25333845833333329,-3.1789890416666662
1403715524652143104,0.0,0.018151424220741029,0.078888882190143686,9.2999730833333327,0.3350605416666666,-3.2198500833333328
1403715524657143040,-0.00069813170079773186,0.019547687622336492,0.08168140899333462,9.2345954166666662,0.3350605416666666,-3.162644625
1403715524662142976,-0.0027925268031909274,0.018849555921538759,0.076794487087750496,9.2591120416666666,0.30237170833333332,-3.2198500833333328
1403715524667142912,-0.0020943951023931952,0.020943951023931952,0.080285145591739146,9.2591120416666666,0.34323275000000003,-3.1708168333333329
1403715524672143104,-0.0020943951023931952,0.020245819323134219,0.080983277292536876,9.2509398333333337,0.32688833333333334,-3.1871612499999999
1403715524677143040,0.0,0.019547687622336492,0.07749261878854824,9.2918008749999998,0.31871612500000002,-3.1544724166666662
1403715524682142976,-0.0013962634015954637,0.023038346126325153,0.07749261878854824,9.2836286666666652,0.27785508333333331,-3.2116778749999999
1403715524687142912,-0.0020943951023931952,0.019547687622336492,0.07749261878854824,9.2264232083333333,0.29419949999999995,-3.162644625
1403715524692143104,-0.0027925268031909274,0.020943951023931952,0.07749261878854824,9.2999730833333327,0.31871612500000002,-3.2198500833333328
1403715524697143040,-0.0041887902047863905,0.017453292519943295,0.076794487087750496,9.2591120416666666,0.32688833333333334,-3.1708168333333329
1403715524702142976,-0.0041887902047863905,0.018151424220741029,0.074001960284559576,9.242767624999999,0.29419949999999995,-3.2198500833333328
1403715524707142912,0.0,0.012566370614359173,0.07609635538695278,9.2918008749999998,0.3350605416666666,-3.162644625
1403715524712143104,-0.0034906585039886592,0.018849555921538759,0.072605696882964116,9.2672842499999994,0.26968287499999999,-3.1953334583333328
1403715524717143040,-0.0027925268031909274,0.016057029118347832,0.076794487087750496,9.2754564583333323,0.31871612500000002,-3.2035056666666666
1403715524722142976,-0.0034906585039886592,0.020245819323134219,0.080285145591739146,9.2182509999999986,0.30237170833333332,-3.1953334583333328
1403715524727142912,-0.0048869219055841231,0.018151424220741029,0.076794487087750496,9.2264232083333333,0.3350605416666666,-3.2116778749999999
1403715524732143104,-0.0013962634015954637,0.022340214425527419,0.07609635538695278,9.2509398333333337,0.29419949999999995,-3.1953334583333328
1403715524737143040,0.00069813170079773186,0.0153588974175501,0.078888882190143686,9.3081452916666674,0.37592158333333331,-3.1789890416666662
1403715524742142976,-0.0041887902047863905,0.023736477827122883,0.07958701389094143,9.2672842499999994,0.29419949999999995,-3.2280222916666665
1403715524747142912,-0.0013962634015954637,0.019547687622336492,0.076794487087750496,9.2836286666666652,0.3350605416666666,-3.1953334583333328
1403715524752143104,-0.00069813170079773186,0.020943951023931952,0.07958701389094143,9.2182509999999986,0.28602729166666663,-3.1789890416666662
1403715524757143040,-0.0034906585039886592,0.018151424220741029,0.075398223686155036,9.3081452916666674,0.31871612500000002,-3.162644625
1403715524762142976,-0.0020943951023931952,0.018151424220741029,0.076794487087750496,9.2509398333333337,0.28602729166666663,-3.1463002083333333
1403715524767142912,-0.0069813170079773184,0.023736477827122883,0.07609635538695278,9.242767624999999,0.32688833333333334,-3.2280222916666665
1403715524772143104,-0.0069813170079773184,0.025132741228718346,0.07749261878854824,9.2264232083333333,0.34323275000000003,-3.1299557916666663
1403715524777143040,-0.0027925268031909274,0.019547687622336492,0.069115038378975438,9.3571785416666664,0.26968287499999999,-3.2770555416666665
1403715524782142976,-0.0097738438111682462,0.013264502315156905,0.080285145591739146,9.0302902083333318,0.62108783333333339,-3.1217835833333334
1403715524787142912,-0.021642082724729686,0.016755160819145562,0.08377580409572781,9.4552450416666662,0.56388237500000005,-3.3097443750000002
1403715524792143104,-0.027925268031909273,0.024434609527920613,0.086568330898918744,9.2264232083333333,0.22064962499999999,-3.162644625
1403715524797143040,-0.013962634015954637,0.010471975511965976,0.087964594300514204,9.2836286666666652,-0.098066500000000001,-3.1299557916666663
1403715524802142976,0.018849555921538759,0.036302848441482058,0.069115038378975438,9.3898673749999997,-0.62108783333333339,-3.0890947499999997
1403715524807142912,0.055850536063818547,0.011868238913561441,0.071907565182166372,9.0057735833333332,-0.081722083333333334,-3.0645781249999997
1403715524812143104,0.061435589670200401,0.023736477827122883,0.043982297150257102,9.6023447916666651,0.18796079166666665,-3.3260887916666664
1403715524817143040,0.037699111843077518,0.029321531433504733,0.052359877559829883,8.7687795416666656,1.3974476249999999,-3.0564059166666664
1403715524822142976,-0.019547687622336492,0.0013962634015954637,0.08168140899333462,9.3898673749999997,1.7897136249999999,-3.5058773749999999
1403715524827142912,-0.087266462599716474,0.027925268031909273,0.095644043009289262,9.0466346249999994,1.1195925416666666,-3.1953334583333328
1403715524832143104,-0.1096066770252439,0.011868238913561441,0.11100294042683936,9.2264232083333333,0.089894291666666667,-3.2198500833333328
1403715524837143040,-0.071209433481368656,0.018151424220741029,0.10611601852125524,9.3898673749999997,-1.201314625,-2.9828560416666661
1403715524842142976,0.0020943951023931952,0.027925268031909273,0.086568330898918744,9.2999730833333327,-1.1441091666666665,-3.0809225416666663
1403715524847142912,0.064228116473391328,0.0097738438111682462,0.08168140899333462,9.2345954166666662,-0.57205458333333326,-2.9665116249999999
1403715524852143104,0.08307767239493008,0.016755160819145562,0.057246799465414,9.5369671250000003,0.122583125,-3.3015721666666664
1403715524857143040,0.076794487087750496,0.043284165449459372,0.074001960284559576,9.0956678750000002,0.93163174999999998,-3.2198500833333328
1403715524862142976,0.037699111843077518,0.016057029118347832,0.075398223686155036,9.1120122916666659,1.0460426666666667,-3.2607111249999998
1403715524867142912,0.0041887902047863905,0.036302848441482058,0.087266462599716474,9.6186892083333326,1.1277647500000001,-3.4486719166666666
1403715524872143104,-0.032812189937493394,0.0307177948351002,0.092153384505300612,8.6298519999999996,0.81722083333333329,-3.0564059166666664
1403715524877143040,-0.046774823953448029,0.010471975511965976,0.094247779607693802,9.9782663750000005,0.5475379583333333,-3.4731885416666666
1403715524882142976,-0.060039326268604934,0.055152404363020817,0.087266462599716474,8.5481299166666673,0.22882183333333334,-2.8357562916666668
1403715524887142912,-0.044680428851054839,-0.0062831853071795866,0.084473935796525554,9.5696559583333336,-0.089894291666666667,-3.4159830833333329
1403715524892143104,-0.016755160819145562,0.055850536063818547,0.069813170079773182,9.4307284166666658,-0.51484912499999991,-2.9910282499999998
1403715524897143040,0.020245819323134219,0.0041887902047863905,0.074700091985357306,8.7524351249999999,-0.37592158333333331,-3.0564059166666664
1403715524902142976,0.049567350756638949,0.02652900463031381,0.060039326268604934,9.7249279166666671,-0.21247741666666667,-3.2607111249999998
1403715524907142912,0.057944931166211737,0.025132741228718346,0.067020643276582248,8.9322237083333338,0.42495483333333334,-3.0727503333333335
1403715524912143104,0.043982297150257102,0.011868238913561441,0.063529984772593598,9.3244897083333331,0.89077070833333327,-3.4078108749999996
1403715524917143040,0.01117010721276371,0.035604716740684328,0.069813170079773182,9.3244897083333331,0.84990966666666667,-3.162644625
1403715524922142976,-0.016057029118347832,0.030019663134302467,0.078888882190143686,9.1773899583333325,1.0623870833333333,-3.3342610000000001
1403715524927142912,-0.043982297150257102,0.02583087292951608,0.087266462599716474,9.1610455416666667,0.4903325,-3.1136113750000001
1403715524932143104,-0.050963614158234416,0.032114058236695664,0.094945911308491532,9.2182509999999986,0.28602729166666663,-3.1871612499999999
1403715524937143040,-0.041887902047863905,0.016057029118347832,0.097040306410884708,8.9567403333333324,-0.11441091666666667,-3.0237170833333331
1403715524942142976,-0.013264502315156905,0.01117010721276371,0.096342174710086978,9.3898673749999997,-0.36774937499999999,-3.1708168333333329
1403715524947142912,0.013962634015954637,0.021642082724729686,0.073303828583761846,9.242767624999999,-0.23699404166666665,-3.1299557916666663
1403715524952143104,0.036302848441482058,0.0020943951023931952,0.071907565182166372,9.2100787916666658,-0.073549874999999987,-3.1463002083333333
1403715524957143040,0.044680428851054839,0.025132741228718346,0.064228116473391328,9.6023447916666651,0.32688833333333334,-3.2443667083333327
1403715524962142976,0.037000980142279788,0.023736477827122883,0.071209433481368656,9.0793234583333327,0.64560445833333324,-3.2035056666666666
1403715524967142912,0.019547687622336492,0.023038346126325153,0.076794487087750496,9.4389006250000005,0.86625408333333331,-3.3260887916666664
1403715524972143104,-0.008377580409572781,0.030019663134302467,0.088662726001311934,9.1692177499999996,0.8253930416666666,-3.1463002083333333
1403715524977143040,-0.032114058236695664,0.0153588974175501,0.086568330898918744,9.1283567083333317,0.68646550000000006,-3.2361944999999999
1403715524982142976,-0.042586033748661642,0.018151424220741029,0.08237954069413235,9.3490063333333335,0.27785508333333331,-3.1871612499999999
1403715524987142912,-0.038397243543875248,0.018151424220741029,0.073303828583761846,9.3163174999999985,-0.196133,-3.2443667083333327
1403715524992143104,-0.0076794487087750501,0.020943951023931952,0.067020643276582248,9.3244897083333331,-0.34323275000000003,-3.2361944999999999
1403715524997143040,0.034208453339088861,0.029321531433504733,0.073303828583761846,9.3735229583333322,-0.098066500000000001,-3.1789890416666662
1403715525002142976,0.041887902047863905,0.035604716740684328,0.08377580409572781,9.1447011249999992,0.53936574999999998,-3.1953334583333328
1403715525007142912,0.014660765716752367,0.02652900463031381,0.087964594300514204,9.1855621666666654,1.2176590416666666,-3.1871612499999999
1403715525012143104,-0.0307177948351002,0.016755160819145562,0.1054178868204575,9.0384624166666665,1.1931424166666666,-3.138128
1403715525017143040,-0.076794487087750496,0.014660765716752367,0.080285145591739146,9.1610455416666667,0.78453200000000001,-3.3506054166666663
1403715525022142976,-0.069813170079773182,0.0090757121103705145,0.087964594300514204,9.4634172499999991,-0.196133,-3.1789890416666662
1403715525027142912,-0.037000980142279788,0.0307177948351002,0.075398223686155036,9.242767624999999,-0.81722083333333329,-3.0809225416666663
1403715525032143104,0.036302848441482058,0.017453292519943295,0.056548667764616284,9.3653507499999993,-1.2176590416666666,-3.1871612499999999
1403715525037143040,0.10122909661567112,0.039095375244672985,0.071209433481368656,9.3816951666666668,-0.13892754166666665,-2.9419949999999999
1403715525042142976,0.10611601852125524,0.02652900463031381,0.063529984772593598,8.9403959166666649,1.0623870833333333,-3.138128
1403715525047142912,0.062831853071795868,0.0,0.062831853071795868,9.0793234583333327,1.7406803749999997,-3.2525389166666665
1403715525052143104,-0.020245819323134219,0.008377580409572781,0.071209433481368656,9.2999730833333327,1.5854084166666664,-3.3832942499999996
1403715525057143040,-0.067020643276582248,0.008377580409572781,0.07958701389094143,9.3408341249999989,0.81722083333333329,-3.3506054166666663
1403715525062142976,-0.074700091985357306,0.0153588974175501,0.093549647906896058,9.2591120416666666,0.43312704166666666,-3.3260887916666664
1403715525067142912,-0.063529984772593598,0.02722713633111154,0.092153384505300612,9.3653507499999993,-0.13892754166666665,-3.1299557916666663
1403715525072143104,-0.034208453339088861,0.017453292519943295,0.097738438111682452,9.0548068333333322,-0.4494714583333333,-3.0073726666666665
1403715525077143040,-0.0055850536063818549,0.013264502315156905,0.07819075048934597,9.1610455416666667,-0.3105439166666667,-3.1953334583333328
1403715525082142976,0.032114058236695664,0.0090757121103705145,0.087266462599716474,9.3653507499999993,-0.28602729166666663,-2.9910282499999998
1403715525087142912,0.048171087355043489,0.013962634015954637,0.074001960284559576,9.3816951666666668,-0.21247741666666667,-3.2443667083333327
1403715525092143104,0.061435589670200401,0.013962634015954637,0.065624379874986788,9.5206227083333328,0.45764366666666667,-3.3506054166666663
1403715525097143040,0.055152404363020817,0.034208453339088861,0.092851516206098328,9.2182509999999986,0.80087641666666665,-3.138128
1403715525102142976,0.0090757121103705145,0.019547687622336492,0.089360857702109678,9.2019065833333329,1.3484143749999999,-3.3506054166666663
1403715525107142912,-0.032114058236695664,0.024434609527920613,0.089360857702109678,9.4470728333333334,0.99700941666666665,-3.1544724166666662
1403715525112143104,-0.061435589670200401,0.034208453339088861,0.097040306410884708,8.7606073333333327,0.7028099166666667,-2.9828560416666661
1403715525117143040,-0.068416906678177722,0.0013962634015954637,0.08307767239493008,9.2836286666666652,0.13075533333333333,-3.2280222916666665
1403715525122142976,-0.042586033748661642,0.018151424220741029,0.08168140899333462,9.4879338749999995,-0.36774937499999999,-3.1871612499999999
1403715525127142912,-0.0090757121103705145,0.02652900463031381,0.069813170079773182,9.2672842499999994,-0.31871612500000002,-3.2280222916666665
1403715525132143104,0.02652900463031381,0.025132741228718346,0.063529984772593598,9.2591120416666666,-0.35957716666666667,-3.1544724166666662
1403715525137143040,0.044680428851054839,0.038397243543875248,0.071907565182166372,9.3408341249999989,0.089894291666666667,-3.1299557916666663
1403715525142142976,0.046076692252650306,0.025132741228718346,0.062133721370998138,9.0221180000000007,0.53119354166666666,-3.1871612499999999
1403715525147142912,0.035604716740684328,0.0041887902047863905,0.067020643276582248,9.3735229583333322,0.69463770833333327,-3.1789890416666662
1403715525152143104,0.010471975511965976,0.018849555921538759,0.070511301780570912,9.0302902083333318,0.8253930416666666,-3.2035056666666666
1403715525157143040,-0.022340214425527419,0.0048869219055841231,0.074001960284559576,9.332661916666666,0.83356525000000004,-3.2933999583333331
1403715525162142976,-0.041189770347066175,0.022340214425527419,0.084473935796525554,9.471589458333332,0.49850470833333332,-3.3342610000000001
1403715525167142912,-0.05375614096142535,0.02652900463031381,0.086568330898918744,9.1773899583333325,0.29419949999999995,-3.1871612499999999
1403715525172143104,-0.037000980142279788,0.027925268031909273,0.094945911308491532,9.1365289166666663,-0.04903325,-3.0809225416666663
1403715525177143040,-0.013962634015954637,0.018849555921538759,0.090058989402907408,9.2509398333333337,-0.43312704166666666,-3.0564059166666664
1403715525182142976,0.014660765716752367,0.016057029118347832,0.08307767239493008,9.0793234583333327,-0.26151066666666667,-3.1136113750000001
1403715525187142912,0.032812189937493394,0.01117010721276371,0.088662726001311934,9.3980395833333326,0.15527195833333335,-3.2525389166666665
1403715525192143104,0.033510321638291124,0.013962634015954637,0.08307767239493008,9.332661916666666,0.4494714583333333,-3.2198500833333328
1403715525197143040,0.014660765716752367,0.022340214425527419,0.07958701389094143,9.3490063333333335,0.8253930416666666,-3.2443667083333327
1403715525202142976,-0.010471975511965976,0.017453292519943295,0.090757121103705138,9.4552450416666662,0.64560445833333324,-3.1953334583333328
1403715525207142912,-0.023736477827122883,0.018849555921538759,0.088662726001311934,9.1120122916666659,0.098066500000000001,-3.0972669583333334
1403715525212143104,-0.0020943951023931952,0.013264502315156905,0.087964594300514204,9.2100787916666658,-0.27785508333333331,-3.0809225416666663
1403715525217143040,0.033510321638291124,0.01117010721276371,0.071907565182166372,9.4062117916666654,-0.392266,-3.2770555416666665
1403715525222142976,0.047472955654245766,0.024434609527920613,0.063529984772593598,9.3081452916666674,0.24516625,-3.1054391666666663
1403715525227142912,0.036302848441482058,0.018151424220741029,0.057246799465414,9.3490063333333335,0.9398039583333333,-3.4404997083333333
1403715525232143104,-0.0027925268031909274,0.0307177948351002,0.063529984772593598,9.3163174999999985,1.4955141249999999,-3.3506054166666663
1403715525237143040,-0.062133721370998138,0.032114058236695664,0.08377580409572781,9.0793234583333327,1.3811032083333332,-3.2688833333333331
1403715525242142976,-0.10192722831646883,0.017453292519943295,0.086568330898918744,9.0629790416666669,0.75184316666666662,-3.1054391666666663
1403715525247142912,-0.092153384505300612,0.020245819323134219,0.11100294042683936,9.0629790416666669,-0.32688833333333334,-2.9746838333333332
1403715525252143104,-0.050265482457436693,0.0048869219055841231,0.090058989402907408,9.2999730833333327,-1.0869037083333333,-3.2525389166666665
1403715525257143040,0.022340214425527419,0.017453292519943295,0.090058989402907408,9.4797616666666666,-0.88259849999999995,-2.8847895416666667
1403715525262142976,0.062831853071795868,0.020245819323134219,0.066322511575784518,9.3653507499999993,-0.089894291666666667,-3.3179165833333331
1403715525267142912,0.07749261878854824,0.018151424220741029,0.048869219055841226,9.1201845000000006,0.48216029166666663,-3.0972669583333334
1403715525272143104,0.062133721370998138,0.0307177948351002,0.074700091985357306,9.3408341249999989,1.0787315,-3.2198500833333328
1403715525277143040,0.017453292519943295,0.021642082724729686,0.070511301780570912,9.2509398333333337,0.96432058333333326,-3.2035056666666666
1403715525282142976,-0.016057029118347832,0.027925268031909273,0.094247779607693802,9.0302902083333318,1.1931424166666666,-3.1953334583333328
1403715525287142912,-0.05305800926062762,0.0055850536063818549,0.090757121103705138,9.0793234583333327,0.66194887499999999,-3.0809225416666663
1403715525292143104,-0.056548667764616284,0.011868238913561441,0.10681415022205297,9.2019065833333329,0.46581587499999999,-3.1054391666666663
1403715525297143040,-0.061435589670200401,-0.0048869219055841231,0.071907565182166372,9.5124504999999999,-0.20430520833333332,-3.2361944999999999
1403715525302142976,-0.029321531433504733,0.0090757121103705145,0.080285145591739146,9.193734375,-0.065377666666666667,-3.0809225416666663
1403715525307142912,0.0,0.008377580409572781,0.065624379874986788,9.3653507499999993,-0.63743225000000003,-3.0890947499999997
1403715525312143104,0.034906585039886591,0.008377580409572781,0.064228116473391328,9.5042782916666653,-0.15527195833333335,-3.2933999583333331
1403715525317143040,0.062133721370998138,0.021642082724729686,0.069813170079773182,9.2509398333333337,0.098066500000000001,-3.0890947499999997
1403715525322142976,0.055152404363020817,0.011868238913561441,0.074001960284559576,9.193734375,0.7028099166666667,-3.1871612499999999
1403715525327142912,0.028623399732707,0.0027925268031909274,0.07609635538695278,8.9567403333333324,1.0705592916666666,-3.2198500833333328
1403715525332143104,-0.018151424220741029,0.0,0.074700091985357306,9.5369671250000003,0.97249279166666658,-3.3179165833333331
1403715525337143040,-0.042586033748661642,0.020943951023931952,0.080983277292536876,9.3081452916666674,0.79270420833333322,-3.4078108749999996
1403715525342142976,-0.055850536063818547,0.0062831853071795866,0.08168140899333462,9.0874956666666655,0.392266,-3.1953334583333328
1403715525347142912,-0.043982297150257102,0.025132741228718346,0.092153384505300612,9.5451393333333332,0.032688833333333334,-3.3751220416666667
1403715525352143104,-0.023038346126325153,0.029321531433504733,0.086568330898918744,9.0384624166666665,-0.23699404166666665,-3.1217835833333334
1403715525357143040,0.0034906585039886592,0.019547687622336492,0.08377580409572781,9.1855621666666654,-0.21247741666666667,-3.1708168333333329
1403715525362142976,0.023736477827122883,0.029321531433504733,0.071209433481368656,9.0874956666666655,-0.0081722083333333334,-3.0890947499999997
1403715525367142912,0.039793506945470715,0.0041887902047863905,0.078888882190143686,9.1528733333333321,0.20430520833333332,-3.1708168333333329
1403715525372143104,0.029321531433504733,0.017453292519943295,0.062831853071795868,9.5287949166666657,0.42495483333333334,-3.3015721666666664
1403715525377143040,0.023038346126325153,0.023736477827122883,0.073303828583761846,9.1283567083333317,0.68646550000000006,-3.2035056666666666
1403715525382142976,0.0041887902047863905,0.019547687622336492,0.074001960284559576,9.4470728333333334,0.77635979166666658,-3.3179165833333331
1403715525387142912,-0.018151424220741029,0.030019663134302467,0.071907565182166372,9.332661916666666,0.71915433333333334,-3.2852277500000002
1403715525392143104,-0.029321531433504733,0.029321531433504733,0.08377580409572781,9.1365289166666663,0.41678262500000002,-3.1544724166666662
1403715525397143040,-0.018849555921538759,0.017453292519943295,0.090757121103705138,9.1201845000000006,-0.016344416666666667,-3.0073726666666665
1403715525402142976,-0.0076794487087750501,0.0097738438111682462,0.08237954069413235,9.0139457916666661,0.065377666666666667,-2.9910282499999998
1403715525407142912,-0.01117010721276371,-0.0076794487087750501,0.075398223686155036,9.2591120416666666,0.48216029166666663,-3.3097443750000002
1403715525412143104,-0.021642082724729686,0.01117010721276371,0.075398223686155036,9.4143839999999983,0.65377666666666667,-3.4486719166666666
1403715525417143040,-0.036302848441482058,0.011868238913561441,0.071209433481368656,9.2345954166666662,0.24516625,-3.2688833333333331
1403715525422142976,-0.02652900463031381,0.032114058236695664,0.088662726001311934,9.3571785416666664,-0.17161637500000002,-3.2852277500000002
1403715525427142912,0.01117010721276371,0.022340214425527419,0.07749261878854824,9.2019065833333329,-0.66194887499999999,-2.9011339583333333
1403715525432143104,0.060737457969402671,0.021642082724729686,0.080983277292536876,9.1201845000000006,-0.58839899999999989,-2.9338227916666666
1403715525437143040,0.097040306410884708,0.011868238913561441,0.067718774977379978,9.2100787916666658,-0.057205458333333334,-3.0645781249999997
1403715525442142976,0.084473935796525554,-0.0062831853071795866,0.060039326268604934,9.0793234583333327,1.1767979999999998,-3.2361944999999999
1403715525447142912,0.023736477827122883,0.008377580409572781,0.064228116473391328,9.3816951666666668,1.8877801249999999,-3.4486719166666666
1403715525452143104,-0.047472955654245766,0.010471975511965976,0.071907565182166372,9.2918008749999998,1.4955141249999999,-3.4078108749999996
1403715525457143040,-0.085870199198121014,0.019547687622336492,0.08168140899333462,9.4389006250000005,0.7436709583333333,-3.3097443750000002
1403715525462142976,-0.084473935796525554,0.020943951023931952,0.095644043009289262,9.0057735833333332,0.0,-3.1136113750000001
1403715525467142912,-0.065624379874986788,0.020245819323134219,0.078888882190143686,9.3244897083333331,-0.50667691666666659,-3.0482337083333335
1403715525472143104,-0.013264502315156905,0.011868238913561441,0.090757121103705138,9.3081452916666674,-0.45764366666666667,-2.9828560416666661
1403715525477143040,0.020943951023931952,0.014660765716752367,0.060039326268604934,9.3980395833333326,-0.46581587499999999,-3.2280222916666665
1403715525482142976,0.05166174585903216,0.016057029118347832,0.055850536063818547,9.1038400833333331,0.17978858333333333,-3.0809225416666663
1403715525487142912,0.057944931166211737,0.016755160819145562,0.064926248174189058,9.4307284166666658,0.27785508333333331,-3.3832942499999996
1403715525492143104,0.041887902047863905,0.029321531433504733,0.055152404363020817,9.3081452916666674,0.55571016666666662,-3.2035056666666666
1403715525497143040,0.020245819323134219,0.020245819323134219,0.068416906678177722,9.0384624166666665,1.1032481249999999,-3.2443667083333327
1403715525502142976,-0.012566370614359173,0.018151424220741029,0.07819075048934597,9.242767624999999,1.2666922916666667,-3.3342610000000001
1403715525507142912,-0.049567350756638949,0.032114058236695664,0.092153384505300612,9.2100787916666658,0.79270420833333322,-3.1953334583333328
1403715525512143104,-0.067718774977379978,0.018849555921538759,0.092153384505300612,9.2836286666666652,0.4494714583333333,-3.1871612499999999
1403715525517143040,-0.060737457969402671,0.018151424220741029,0.086568330898918744,9.1201845000000006,-0.13892754166666665,-3.0809225416666663
1403715525522142976,-0.029321531433504733,0.011868238913561441,0.089360857702109678,9.0793234583333327,-0.50667691666666659,-3.1136113750000001
1403715525527142912,0.013264502315156905,0.0055850536063818549,0.084473935796525554,9.4143839999999983,-0.44129924999999998,-3.138128
1403715525532143104,0.043982297150257102,0.013962634015954637,0.057246799465414,9.3244897083333331,-0.04903325,-3.2443667083333327
1403715525537143040,0.056548667764616284,0.017453292519943295,0.070511301780570912,9.3081452916666674,0.46581587499999999,-3.3015721666666664
1403715525542142976,0.040491638646268438,0.025132741228718346,0.067020643276582248,9.471589458333332,0.77635979166666658,-3.3097443750000002
1403715525547142912,0.016755160819145562,0.030019663134302467,0.078888882190143686,9.1528733333333321,1.0215260416666667,-3.2607111249999998
1403715525552143104,-0.020245819323134219,0.016755160819145562,0.08168140899333462,9.0139457916666661,0.90711512499999991,-3.138128
1403715525557143040,-0.038397243543875248,0.0153588974175501,0.091455252804502868,9.2345954166666662,0.65377666666666667,-3.2035056666666666
1403715525562142976,-0.043982297150257102,0.011868238913561441,0.096342174710086978,9.1773899583333325,0.16344416666666667,-3.1871612499999999
1403715525567142912,-0.034906585039886591,0.0076794487087750501,0.07609635538695278,9.3898673749999997,-0.040861041666666667,-3.2607111249999998
1403715525572143104,-0.021642082724729686,0.011868238913561441,0.064926248174189058,9.2918008749999998,-0.10623870833333333,-3.1789890416666662
1403715525577143040,0.00069813170079773186,0.016755160819145562,0.05166174585903216,9.2672842499999994,-0.122583125,-3.1544724166666662
1403715525582142976,0.020245819323134219,0.017453292519943295,0.064228116473391328,9.3898673749999997,0.17161637500000002,-3.2116778749999999
1403715525587142912,0.025132741228718346,0.024434609527920613,0.074700091985357306,9.2591120416666666,0.43312704166666666,-3.1953334583333328
1403715525592143104,0.020943951023931952,0.0153588974175501,0.090058989402907408,8.9403959166666649,0.53936574999999998,-3.0237170833333331
1403715525597143040,0.0034906585039886592,0.0076794487087750501,0.084473935796525554,9.2264232083333333,0.76001537499999994,-3.2198500833333328
1403715525602142976,-0.018151424220741029,0.008377580409572781,0.087964594300514204,9.5287949166666657,0.79270420833333322,-3.4159830833333329
1403715525607142912,-0.047472955654245766,0.018849555921538759,0.070511301780570912,9.2345954166666662,0.63743225000000003,-3.2443667083333327
1403715525612143104,-0.05166174585903216,0.020245819323134219,0.059341194567807204,9.3980395833333326,-0.032688833333333334,-3.2361944999999999
1403715525617143040,-0.020943951023931952,0.022340214425527419,0.064228116473391328,9.1201845000000006,-0.66194887499999999,-3.1708168333333329
1403715525622142976,0.029321531433504733,0.02652900463031381,0.069115038378975438,9.1447011249999992,-0.5475379583333333,-3.0237170833333331
1403715525627142912,0.074001960284559576,0.0153588974175501,0.080983277292536876,9.2264232083333333,-0.14709974999999997,-3.138128
1403715525632143104,0.075398223686155036,0.020245819323134219,0.080983277292536876,9.0711512499999998,0.83356525000000004,-3.3097443750000002
1403715525637143040,0.037699111843077518,0.013962634015954637,0.07819075048934597,9.1528733333333321,1.5118585416666666,-3.3260887916666664
1403715525642142976,-0.039095375244672985,0.0076794487087750501,0.090757121103705138,9.5124504999999999,1.7897136249999999,-3.5303939999999998
1403715525647142912,-0.10471975511965977,0.018849555921538759,0.089360857702109678,9.1447011249999992,1.0705592916666666,-3.3342610000000001
1403715525652143104,-0.12217304763960307,0.021642082724729686,0.089360857702109678,9.332661916666666,0.081722083333333334,-3.2035056666666666
1403715525657143040,-0.075398223686155036,0.0153588974175501,0.10192722831646883,9.242767624999999,-0.95614837499999994,-3.1054391666666663
1403715525662142976,-0.008377580409572781,0.032114058236695664,0.085172067497323284,9.1201845000000006,-1.2830367083333332,-2.8439284999999996
1403715525667142912,0.061435589670200401,0.0090757121103705145,0.080285145591739146,9.3980395833333326,-0.62108783333333339,-3.1463002083333333
1403715525672143104,0.085172067497323284,0.018849555921538759,0.055152404363020817,9.3163174999999985,0.13892754166666665,-3.2688833333333331
1403715525677143040,0.074001960284559576,0.036302848441482058,0.050265482457436693,9.3980395833333326,0.78453200000000001,-3.3260887916666664
1403715525682142976,0.044680428851054839,0.024434609527920613,0.05445427266222308,9.0629790416666669,1.2912089166666665,-3.2035056666666666
1403715525687142912,-0.0055850536063818549,0.027925268031909273,0.057944931166211737,9.1528733333333321,1.1931424166666666,-3.3015721666666664
1403715525692143104,-0.038397243543875248,0.024434609527920613,0.08237954069413235,9.2264232083333333,0.92345954166666655,-3.2525389166666665
1403715525697143040,-0.061435589670200401,0.011868238913561441,0.080983277292536876,9.3490063333333335,0.35957716666666667,-3.3015721666666664
1403715525702142976,-0.058643062867009467,0.02583087292951608,0.078888882190143686,9.1365289166666663,0.21247741666666667,-3.1463002083333333
1403715525707142912,-0.046774823953448029,0.013962634015954637,0.072605696882964116,9.471589458333332,-0.16344416666666667,-3.3179165833333331
1403715525712143104,-0.020245819323134219,0.022340214425527419,0.062133721370998138,9.1283567083333317,-0.41678262500000002,-2.9910282499999998
1403715525717143040,0.021642082724729686,0.02652900463031381,0.061435589670200401,9.2672842499999994,-0.49850470833333332,-3.1217835833333334
1403715525722142976,0.048869219055841226,0.014660765716752367,0.067020643276582248,9.242767624999999,-0.16344416666666667,-3.1544724166666662
1403715525727142912,0.060039326268604934,0.021642082724729686,0.071209433481368656,9.1855621666666654,0.35140495833333335,-3.1136113750000001
1403715525732143104,0.05375614096142535,0.013264502315156905,0.08168140899333462,9.2672842499999994,0.75184316666666662,-3.138128
1403715525737143040,0.020245819323134219,0.01117010721276371,0.07749261878854824,9.2999730833333327,1.0051816249999999,-3.3914664583333329
1403715525742142976,-0.0069813170079773184,0.023736477827122883,0.078888882190143686,9.2672842499999994,0.94797616666666662,-3.2116778749999999
1403715525747142912,-0.042586033748661642,0.023736477827122883,0.090058989402907408,9.2100787916666658,0.69463770833333327,-3.2116778749999999
1403715525752143104,-0.058643062867009467,0.024434609527920613,0.08237954069413235,9.1528733333333321,0.3350605416666666,-3.1217835833333334
1403715525757143040,-0.042586033748661642,0.022340214425527419,0.099134701513277898,9.3735229583333322,-0.20430520833333332,-3.1054391666666663
1403715525762142976,-0.01117010721276371,0.02722713633111154,0.097738438111682452,9.193734375,-0.392266,-3.1217835833333334
1403715525767142912,0.0097738438111682462,0.013962634015954637,0.07819075048934597,8.9240514999999991,-0.15527195833333335,-3.0809225416666663
1403715525772143104,0.032812189937493394,0.014660765716752367,0.069813170079773182,9.4879338749999995,0.024516625,-3.2607111249999998
1403715525777143040,0.041189770347066175,0.013264502315156905,0.062133721370998138,9.3163174999999985,0.081722083333333334,-3.2035056666666666
1403715525782142976,0.035604716740684328,0.012566370614359173,0.050963614158234416,9.2672842499999994,0.62108783333333339,-3.3015721666666664
1403715525787142912,0.014660765716752367,0.023736477827122883,0.066322511575784518,9.3816951666666668,1.0133538333333332,-3.1708168333333329
1403715525792143104,-0.013264502315156905,0.031415926535897934,0.074700091985357306,9.1283567083333317,0.76001537499999994,-3.2852277500000002
1403715525797143040,-0.020245819323134219,0.017453292519943295,0.075398223686155036,9.471589458333332,0.065377666666666667,-3.1136113750000001
1403715525802142976,-0.014660765716752367,0.033510321638291124,0.08307767239493008,9.1610455416666667,0.18796079166666665,-3.1953334583333328
1403715525807142912,-0.018849555921538759,0.016057029118347832,0.062133721370998138,9.0711512499999998,0.32688833333333334,-3.1789890416666662
1403715525812143104,-0.019547687622336492,0.010471975511965976,0.067718774977379978,9.4470728333333334,0.48216029166666663,-3.2933999583333331
1403715525817143040,-0.032812189937493394,0.031415926535897934,0.071907565182166372,9.1120122916666659,0.7028099166666667,-3.3015721666666664
1403715525822142976,-0.046076692252650306,0.0062831853071795866,0.084473935796525554,9.193734375,0.25333845833333329,-3.0972669583333334
1403715525827142912,-0.037699111843077518,0.023736477827122883,0.090757121103705138,9.3816951666666668,-0.065377666666666667,-3.3015721666666664
1403715525832143104,0.0020943951023931952,0.016057029118347832,0.091455252804502868,8.9730847499999999,-0.81722083333333329,-2.8929617499999996
1403715525837143040,0.05375614096142535,0.00069813170079773186,0.067718774977379978,9.6105169999999998,-1.0296982499999998,-3.2525389166666665
1403715525842142976,0.099832833214075656,0.032812189937493394,0.063529984772593598,9.3408341249999989,-0.016344416666666667,-3.1789890416666662
1403715525847142912,0.092851516206098328,0.0153588974175501,0.050265482457436693,9.2591120416666666,1.3974476249999999,-3.3832942499999996
1403715525852143104,0.041887902047863905,0.037000980142279788,0.055152404363020817,9.332661916666666,1.8142302499999998,-3.2116778749999999
1403715525857143040,-0.046774823953448029,0.016057029118347832,0.089360857702109678,8.744262916666667,1.7570247916666666,-3.2361944999999999
1403715525862142976,-0.099134701513277898,0.017453292519943295,0.067718774977379978,9.6268614166666655,0.63743225000000003,-3.3506054166666663
1403715525867142912,-0.087964594300514204,0.018849555921538759,0.10681415022205297,8.8668460416666655,-0.089894291666666667,-3.1217835833333334
1403715525872143104,-0.063529984772593598,0.013962634015954637,0.070511301780570912,9.6186892083333326,-0.65377666666666667,-3.2443667083333327
1403715525877143040,-0.0034906585039886592,0.030019663134302467,0.090058989402907408,9.4470728333333334,-0.55571016666666662,-3.2525389166666665
1403715525882142976,0.019547687622336492,0.02722713633111154,0.055152404363020817,9.1855621666666654,-0.16344416666666667,-3.1789890416666662
1403715525887142912,0.049567350756638949,0.0307177948351002,0.070511301780570912,9.6105169999999998,0.024516625,-3.3587776250000001
1403715525892143104,0.050265482457436693,0.039095375244672985,0.063529984772593598,8.9485681249999995,0.24516625,-3.1136113750000001
1403715525897143040,0.041887902047863905,0.028623399732707,0.074001960284559576,9.0874956666666655,0.89894291666666659,-3.1544724166666662
1403715525902142976,0.016057029118347832,0.020245819323134219,0.08168140899333462,9.3980395833333326,0.80904862499999997,-3.2361944999999999
1403715525907142912,-0.010471975511965976,0.029321531433504733,0.088662726001311934,9.0711512499999998,0.85808187499999988,-3.3996386666666667
1403715525912143104,-0.041189770347066175,0.029321531433504733,0.080285145591739146,9.3571785416666664,0.76001537499999994,-3.2525389166666665
1403715525917143040,-0.058643062867009467,0.034906585039886591,0.080983277292536876,9.2509398333333337,0.63743225000000003,-3.2035056666666666
1403715525922142976,-0.056548667764616284,0.0307177948351002,0.080983277292536876,8.9649125416666671,-0.073549874999999987,-3.0890947499999997
1403715525927142912,-0.023038346126325153,0.028623399732707,0.090757121103705138,9.5287949166666657,-0.37592158333333331,-3.2280222916666665
1403715525932143104,0.0069813170079773184,0.043284165449459372,0.086568330898918744,9.0629790416666669,-0.53119354166666666,-2.9992004583333332
1403715525937143040,0.032114058236695664,0.020245819323134219,0.078888882190143686,9.0466346249999994,0.098066500000000001,-3.0237170833333331
1403715525942142976,0.041189770347066175,0.016057029118347832,0.074700091985357306,9.3081452916666674,0.20430520833333332,-3.0727503333333335
1403715525947142912,0.027925268031909273,0.016057029118347832,0.059341194567807204,9.1447011249999992,0.61291562499999996,-3.3015721666666664
1403715525952143104,0.013264502315156905,0.0055850536063818549,0.057944931166211737,9.4062117916666654,0.76818758333333337,-3.2688833333333331
1403715525957143040,-0.0069813170079773184,0.025132741228718346,0.069115038378975438,9.2100787916666658,0.86625408333333331,-3.2198500833333328
1403715525962142976,-0.030019663134302467,0.020245819323134219,0.078888882190143686,9.0711512499999998,0.40861041666666664,-3.0809225416666663
1403715525967142912,-0.032114058236695664,0.019547687622336492,0.092153384505300612,9.2672842499999994,0.28602729166666663,-3.2198500833333328
1403715525972143104,-0.030019663134302467,0.032812189937493394,0.099134701513277898,9.3735229583333322,0.17978858333333333,-3.1463002083333333
1403715525977143040,-0.024434609527920613,0.016057029118347832,0.091455252804502868,8.9976013749999986,0.13075533333333333,-3.1299557916666663
1403715525982142976,-0.018151424220741029,0.0069813170079773184,0.07749261878854824,9.4470728333333334,-0.016344416666666667,-3.2035056666666666
1403715525987142912,0.0013962634015954637,0.018151424220741029,0.060737457969402671,9.1692177499999996,-0.26968287499999999,-3.1544724166666662
1403715525992143104,0.027925268031909273,0.0153588974175501,0.061435589670200401,9.4143839999999983,-0.024516625,-3.2688833333333331
1403715525997143040,0.037699111843077518,0.018849555921538759,0.071209433481368656,9.1120122916666659,0.38409379166666668,-3.0318892916666664
1403715526002142976,0.023736477827122883,0.017453292519943295,0.063529984772593598,9.422556208333333,0.50667691666666659,-3.3996386666666667
1403715526007142912,0.018849555921538759,0.024434609527920613,0.07819075048934597,9.3653507499999993,0.6701210833333332,-3.2688833333333331
1403715526012143104,0.0013962634015954637,0.031415926535897934,0.087964594300514204,9.4389006250000005,0.87442629166666663,-3.3097443750000002
1403715526017143040,-0.037000980142279788,0.035604716740684328,0.08377580409572781,8.8750182500000001,0.84173745833333324,-3.0809225416666663
1403715526022142976,-0.057246799465414,0.01117010721276371,0.07819075048934597,9.2345954166666662,0.32688833333333334,-3.1544724166666662
1403715526027142912,-0.035604716740684328,0.023038346126325153,0.080285145591739146,9.4389006250000005,-0.16344416666666667,-3.1789890416666662
1403715526032143104,-0.0048869219055841231,0.019547687622336492,0.086568330898918744,8.9485681249999995,-0.22064962499999999,-3.1299557916666663
1403715526037143040,0.016057029118347832,0.01117010721276371,0.07819075048934597,9.3653507499999993,0.024516625,-3.0890947499999997
1403715526042142976,0.023038346126325153,0.021642082724729686,0.069115038378975438,9.3980395833333326,0.15527195833333335,-3.2688833333333331
1403715526047142912,0.031415926535897934,0.032114058236695664,0.069115038378975438,9.4143839999999983,0.35957716666666667,-3.3097443750000002
1403715526052143104,0.025132741228718346,0.034208453339088861,0.07749261878854824,9.2999730833333327,0.53936574999999998,-3.2607111249999998
1403715526057143040,0.0,0.032114058236695664,0.064228116473391328,9.0139457916666661,0.86625408333333331,-3.0318892916666664
1403715526062142976,-0.012566370614359173,0.013264502315156905,0.086568330898918744,9.0384624166666665,0.60474341666666664,-3.138128
1403715526067142912,-0.016057029118347832,0.016057029118347832,0.08377580409572781,9.4552450416666662,0.21247741666666667,-3.2198500833333328
1403715526072143104,-0.016755160819145562,0.008377580409572781,0.090757121103705138,8.9976013749999986,0.36774937499999999,-3.2443667083333327
1403715526077143040,-0.022340214425527419,0.0062831853071795866,0.071209433481368656,9.3816951666666668,0.26151066666666667,-3.2525389166666665
1403715526082142976,-0.011868238913561441,0.022340214425527419,0.08377580409572781,9.2509398333333337,0.30237170833333332,-3.1871612499999999
1403715526087142912,-0.0069813170079773184,0.014660765716752367,0.064228116473391328,9.1773899583333325,-0.089894291666666667,-3.0809225416666663
1403715526092143104,0.012566370614359173,0.013962634015954637,0.069813170079773182,9.4797616666666666,0.089894291666666667,-3.2035056666666666
1403715526097143040,0.018849555921538759,0.021642082724729686,0.067020643276582248,9.1283567083333317,0.122583125,-3.1217835833333334
1403715526102142976,0.029321531433504733,0.014660765716752367,0.087266462599716474,9.1120122916666659,0.49850470833333332,-3.2116778749999999
1403715526107142912,0.019547687622336492,0.020943951023931952,0.088662726001311934,9.4143839999999983,0.4903325,-3.3015721666666664
1403715526112143104,-0.0020943951023931952,0.02583087292951608,0.084473935796525554,9.1855621666666654,0.83356525000000004,-3.2280222916666665
1403715526117143040,-0.021642082724729686,0.017453292519943295,0.080285145591739146,9.3081452916666674,0.4494714583333333,-3.2607111249999998
1403715526122142976,-0.028623399732707,0.021642082724729686,0.062133721370998138,9.0956678750000002,0.29419949999999995,-3.1789890416666662
1403715526127142912,-0.025132741228718346,0.0048869219055841231,0.066322511575784518,9.0139457916666661,-0.11441091666666667,-3.138128
1403715526132143104,-0.0090757121103705145,0.016755160819145562,0.074001960284559576,9.5124504999999999,0.024516625,-3.3506054166666663
1403715526137143040,0.0062831853071795866,0.029321531433504733,0.085172067497323284,9.3408341249999989,-0.04903325,-3.1871612499999999
1403715526142142976,0.016755160819145562,0.023038346126325153,0.08168140899333462,9.0629790416666669,0.36774937499999999,-3.1871612499999999
1403715526147142912,0.018151424220741029,0.02652900463031381,0.08377580409572781,9.3980395833333326,0.45764366666666667,-3.2116778749999999
1403715526152143104,0.0097738438111682462,0.035604716740684328,0.07819075048934597,9.422556208333333,0.42495483333333334,-3.1953334583333328
1403715526157143040,0.0034906585039886592,0.02652900463031381,0.071907565182166372,9.0629790416666669,0.44129924999999998,-3.0809225416666663
1403715526162142976,-0.0069813170079773184,0.011868238913561441,0.071907565182166372,9.0057735833333332,0.36774937499999999,-3.1136113750000001
1403715526167142912,-0.013264502315156905,0.01117010721276371,0.07749261878854824,9.3735229583333322,0.4903325,-3.342433208333333
1403715526172143104,-0.014660765716752367,0.016057029118347832,0.090058989402907408,9.3490063333333335,0.31871612500000002,-3.3015721666666664
1403715526177143040,-0.012566370614359173,0.024434609527920613,0.07749261878854824,9.4797616666666666,0.25333845833333329,-3.2525389166666665
1403715526182142976,-0.0097738438111682462,0.025132741228718346,0.07749261878854824,8.9649125416666671,0.26151066666666667,-3.1217835833333334
1403715526187142912,-0.0034906585039886592,0.020245819323134219,0.071907565182166372,9.4552450416666662,0.32688833333333334,-3.2770555416666665
1403715526192143104,0.0027925268031909274,0.034906585039886591,0.067718774977379978,9.1692177499999996,0.14709974999999997,-3.0890947499999997
1403715526197143040,0.0055850536063818549,0.0097738438111682462,0.069813170079773182,8.9812569583333328,0.22882183333333334,-3.0972669583333334
1403715526202142976,0.013962634015954637,0.0076794487087750501,0.078888882190143686,9.2999730833333327,0.21247741666666667,-3.1217835833333334
1403715526207142912,0.0090757121103705145,0.013962634015954637,0.08168140899333462,9.2591120416666666,0.42495483333333334,-3.2770555416666665
1403715526212143104,-0.0020943951023931952,0.0076794487087750501,0.080285145591739146,9.332661916666666,0.52302133333333334,-3.1953334583333328
1403715526217143040,-0.010471975511965976,0.013962634015954637,0.073303828583761846,9.4634172499999991,0.36774937499999999,-3.3342610000000001
1403715526222142976,-0.008377580409572781,0.030019663134302467,0.08237954069413235,9.2754564583333323,0.42495483333333334,-3.162644625
1403715526227142912,-0.0153588974175501,0.022340214425527419,0.075398223686155036,9.1773899583333325,0.20430520833333332,-3.2116778749999999
1403715526232143104,-0.0097738438111682462,0.023736477827122883,0.072605696882964116,9.2591120416666666,0.23699404166666665,-3.0727503333333335
1403715526237143040,0.0020943951023931952,0.016057029118347832,0.076794487087750496,9.1528733333333321,-0.081722083333333334,-3.1953334583333328
1403715526242142976,0.013962634015954637,0.0153588974175501,0.088662726001311934,9.4389006250000005,0.32688833333333334,-3.2525389166666665
1403715526247142912,0.0062831853071795866,0.019547687622336492,0.090058989402907408,9.1283567083333317,0.36774937499999999,-3.1544724166666662
1403715526252143104,-0.0013962634015954637,0.016057029118347832,0.08168140899333462,9.3735229583333322,0.57205458333333326,-3.2933999583333331
1403715526257143040,-0.0041887902047863905,0.020245819323134219,0.07749261878854824,9.3735229583333322,0.28602729166666663,-3.2607111249999998
1403715526262142976,-0.0062831853071795866,0.029321531433504733,0.067020643276582248,9.4389006250000005,0.3105439166666667,-3.3179165833333331
1403715526267142912,-0.00069813170079773186,0.028623399732707,0.071209433481368656,8.9894291666666657,0.26151066666666667,-3.0645781249999997
1403715526272143104,-0.0076794487087750501,0.0153588974175501,0.065624379874986788,9.1773899583333325,0.392266,-3.0809225416666663
1403715526277143040,-0.0013962634015954637,0.018151424220741029,0.078888882190143686,9.2918008749999998,0.22882183333333334,-3.2852277500000002
1403715526282142976,0.0027925268031909274,0.024434609527920613,0.088662726001311934,9.2100787916666658,0.24516625,-3.2198500833333328
1403715526287142912,0.0,0.020245819323134219,0.089360857702109678,9.2672842499999994,0.50667691666666659,-3.2198500833333328
1403715526292143104,-0.011868238913561441,0.020245819323134219,0.089360857702109678,9.1283567083333317,0.52302133333333334,-3.1463002083333333
1403715526297143040,-0.018849555921538759,0.011868238913561441,0.074001960284559576,9.332661916666666,0.34323275000000003,-3.1463002083333333
1403715526302142976,-0.0090757121103705145,0.018151424220741029,0.067020643276582248,9.3163174999999985,-0.024516625,-3.2198500833333328
1403715526307142912,0.0034906585039886592,0.014660765716752367,0.063529984772593598,9.1692177499999996,0.13892754166666665,-3.1463002083333333
1403715526312143104,0.010471975511965976,0.018849555921538759,0.07609635538695278,9.2100787916666658,0.30237170833333332,-3.1217835833333334
1403715526317143040,0.013264502315156905,0.016755160819145562,0.074001960284559576,9.2999730833333327,0.36774937499999999,-3.2280222916666665
1403715526322142976,0.010471975511965976,0.018151424220741029,0.08237954069413235,9.3571785416666664,0.36774937499999999,-3.2198500833333328
1403715526327142912,0.0,0.022340214425527419,0.07958701389094143,9.2264232083333333,0.62108783333333339,-3.3015721666666664
1403715526332143104,-0.0090757121103705145,0.021642082724729686,0.087266462599716474,9.2672842499999994,0.6292600416666666,-3.2035056666666666
1403715526337143040,-0.029321531433504733,0.0153588974175501,0.080983277292536876,9.242767624999999,0.30237170833333332,-3.2116778749999999
1403715526342142976,-0.02652900463031381,0.013962634015954637,0.071209433481368656,9.2182509999999986,-0.016344416666666667,-3.1544724166666662
1403715526347142912,-0.0013962634015954637,0.010471975511965976,0.075398223686155036,9.2019065833333329,-0.196133,-3.162644625
1403715526352143104,0.020943951023931952,0.021642082724729686,0.07819075048934597,9.3653507499999993,0.065377666666666667,-3.2770555416666665
1403715526357143040,0.02652900463031381,0.0153588974175501,0.07749261878854824,9.193734375,0.30237170833333332,-3.1953334583333328
1403715526362142976,0.021642082724729686,0.02583087292951608,0.070511301780570912,9.3571785416666664,0.5475379583333333,-3.4159830833333329
1403715526367142912,0.008377580409572781,0.024434609527920613,0.07749261878854824,9.2509398333333337,0.61291562499999996,-3.162644625
1403715526372143104,-0.0069813170079773184,0.032812189937493394,0.07819075048934597,9.3163174999999985,0.66194887499999999,-3.3587776250000001
1403715526377143040,-0.02583087292951608,0.032114058236695664,0.086568330898918744,9.0221180000000007,0.4903325,-3.0400614999999998
1403715526382142976,-0.033510321638291124,0.0153588974175501,0.074700091985357306,9.2264232083333333,0.17978858333333333,-3.2852277500000002
1403715526387142912,-0.019547687622336492,0.017453292519943295,0.080983277292536876,9.1692177499999996,-0.057205458333333334,-3.0400614999999998
1403715526392143104,0.0,0.011868238913561441,0.08237954069413235,9.3735229583333322,-0.13892754166666665,-3.342433208333333
1403715526397143040,0.020245819323134219,0.024434609527920613,0.072605696882964116,9.3163174999999985,0.098066500000000001,-3.1299557916666663
1403715526402142976,0.02722713633111154,0.011868238913561441,0.074001960284559576,9.2182509999999986,0.30237170833333332,-3.3097443750000002
1403715526407142912,0.018151424220741029,0.02583087292951608,0.072605696882964116,9.4552450416666662,0.62108783333333339,-3.2852277500000002
1403715526412143104,0.0013962634015954637,0.031415926535897934,0.07958701389094143,9.242767624999999,0.56388237500000005,-3.2035056666666666
1403715526417143040,-0.011868238913561441,0.027925268031909273,0.073303828583761846,9.1855621666666654,0.71915433333333334,-3.1299557916666663
1403715526422142976,-0.027925268031909273,0.016755160819145562,0.07819075048934597,9.1120122916666659,0.35957716666666667,-3.0482337083333335
1403715526427142912,-0.028623399732707,0.008377580409572781,0.08168140899333462,9.1773899583333325,0.15527195833333335,-3.2280222916666665
1403715526432143104,-0.010471975511965976,0.013962634015954637,0.090058989402907408,9.2754564583333323,-0.057205458333333334,-3.2280222916666665
1403715526437143040,0.0069813170079773184,0.013962634015954637,0.080285145591739146,9.3490063333333335,0.040861041666666667,-3.2443667083333327
1403715526442142976,0.018151424220741029,0.020245819323134219,0.074700091985357306,9.1201845000000006,0.28602729166666663,-3.0727503333333335
1403715526447142912,0.017453292519943295,0.0090757121103705145,0.076794487087750496,9.3653507499999993,0.36774937499999999,-3.3342610000000001
1403715526452143104,0.0090757121103705145,0.021642082724729686,0.069115038378975438,9.5451393333333332,0.63743225000000003,-3.342433208333333
1403715526457143040,-0.0062831853071795866,0.02722713633111154,0.067718774977379978,9.1365289166666663,0.56388237500000005,-3.2361944999999999
1403715526462142976,-0.013264502315156905,0.025132741228718346,0.07819075048934597,9.2100787916666658,0.51484912499999991,-3.1708168333333329
1403715526467142912,-0.018151424220741029,0.019547687622336492,0.087266462599716474,9.0221180000000007,0.22882183333333334,-3.0155448749999998
1403715526472143104,-0.01117010721276371,0.011868238913561441,0.084473935796525554,9.3816951666666668,0.20430520833333332,-3.2933999583333331
1403715526477143040,-0.0027925268031909274,0.020943951023931952,0.086568330898918744,9.3163174999999985,0.040861041666666667,-3.1544724166666662
1403715526482142976,0.008377580409572781,0.017453292519943295,0.076794487087750496,9.2591120416666666,0.17978858333333333,-3.2607111249999998
1403715526487142912,0.016755160819145562,0.02583087292951608,0.074001960284559576,9.1773899583333325,0.22882183333333334,-3.1054391666666663
1403715526492143104,0.010471975511965976,0.016057029118347832,0.070511301780570912,9.4307284166666658,0.5475379583333333,-3.3751220416666667
1403715526497143040,0.00069813170079773186,0.028623399732707,0.069813170079773182,9.3735229583333322,0.56388237500000005,-3.2525389166666665
1403715526502142976,-0.01117010721276371,0.023038346126325153,0.069813170079773182,9.193734375,0.38409379166666668,-3.2116778749999999
1403715526507142912,-0.011868238913561441,0.027925268031909273,0.074001960284559576,9.2509398333333337,0.26968287499999999,-3.138128
1403715526512143104,-0.0097738438111682462,0.016755160819145562,0.088662726001311934,9.0874956666666655,0.22064962499999999,-3.1789890416666662
1403715526517143040,-0.0048869219055841231,0.019547687622336492,0.085172067497323284,9.3408341249999989,0.27785508333333331,-3.162644625
1403715526522142976,-0.0027925268031909274,0.016755160819145562,0.08307767239493008,9.1773899583333325,0.10623870833333333,-3.1544724166666662
1403715526527142912,0.0076794487087750501,0.018151424220741029,0.075398223686155036,9.4062117916666654,0.14709974999999997,-3.2933999583333331
1403715526532143104,0.010471975511965976,0.018849555921538759,0.07609635538695278,9.1201845000000006,0.30237170833333332,-3.0890947499999997
1403715526537143040,0.0055850536063818549,0.012566370614359173,0.072605696882964116,9.4143839999999983,0.51484912499999991,-3.3587776250000001
1403715526542142976,-0.0055850536063818549,0.031415926535897934,0.071907565182166372,9.1365289166666663,0.44129924999999998,-3.1544724166666662
1403715526547142912,-0.014660765716752367,0.018849555921538759,0.073303828583761846,9.1692177499999996,0.28602729166666663,-3.1789890416666662
1403715526552143104,-0.008377580409572781,0.024434609527920613,0.088662726001311934,9.2918008749999998,0.28602729166666663,-3.2116778749999999
1403715526557143040,-0.0020943951023931952,0.016755160819145562,0.088662726001311934,9.193734375,0.15527195833333335,-3.2280222916666665
1403715526562142976,-0.00069813170079773186,0.02722713633111154,0.087964594300514204,9.2999730833333327,0.32688833333333334,-3.1708168333333329
1403715526567142912,0.0013962634015954637,0.017453292519943295,0.085870199198121014,9.0711512499999998,0.122583125,-3.1136113750000001
1403715526572143104,0.0076794487087750501,0.012566370614359173,0.074700091985357306,9.4552450416666662,0.28602729166666663,-3.3015721666666664
1403715526577143040,0.0020943951023931952,0.021642082724729686,0.073303828583761846,9.2836286666666652,0.35140495833333335,-3.1871612499999999
1403715526582142976,-0.0062831853071795866,0.013962634015954637,0.067718774977379978,9.3898673749999997,0.52302133333333334,-3.3260887916666664
1403715526587142912,-0.0097738438111682462,0.02722713633111154,0.074700091985357306,9.1773899583333325,0.35957716666666667,-3.1299557916666663
1403715526592143104,-0.0090757121103705145,0.013962634015954637,0.069813170079773182,9.1692177499999996,0.26968287499999999,-3.0972669583333334
1403715526597143040,0.0013962634015954637,0.020245819323134219,0.08168140899333462,9.3490063333333335,0.3350605416666666,-3.2933999583333331
1403715526602142976,-0.00069813170079773186,0.024434609527920613,0.085870199198121014,9.1038400833333331,0.23699404166666665,-3.1789890416666662
1403715526607142912,0.0020943951023931952,0.023736477827122883,0.085172067497323284,9.2672842499999994,0.25333845833333329,-3.1789890416666662
1403715526612143104,0.0048869219055841231,0.0153588974175501,0.08377580409572781,9.0466346249999994,0.16344416666666667,-3.0645781249999997
1403715526617143040,0.0048869219055841231,0.013264502315156905,0.071209433481368656,9.4470728333333334,0.40861041666666664,-3.3506054166666663
1403715526622142976,0.0013962634015954637,0.02722713633111154,0.069813170079773182,9.1692177499999996,0.35140495833333335,-3.162644625
1403715526627142912,-0.0069813170079773184,0.013962634015954637,0.066322511575784518,9.2999730833333327,0.50667691666666659,-3.2198500833333328
1403715526632143104,-0.0090757121103705145,0.021642082724729686,0.074001960284559576,9.1365289166666663,0.21247741666666667,-3.162644625
1403715526637143040,-0.0055850536063818549,0.01117010721276371,0.070511301780570912,9.3653507499999993,0.28602729166666663,-3.2443667083333327
1403715526642142976,-0.0048869219055841231,0.02583087292951608,0.086568330898918744,9.3653507499999993,0.35140495833333335,-3.2443667083333327
1403715526647142912,-0.0069813170079773184,0.021642082724729686,0.080983277292536876,9.1365289166666663,0.25333845833333329,-3.1708168333333329
1403715526652143104,0.0027925268031909274,0.022340214425527419,0.090757121103705138,9.2836286666666652,0.26968287499999999,-3.162644625
1403715526657143040,0.0048869219055841231,0.016755160819145562,0.07958701389094143,9.1528733333333321,0.24516625,-3.1789890416666662
1403715526662142976,0.0013962634015954637,0.011868238913561441,0.071907565182166372,9.4062117916666654,0.41678262500000002,-3.3506054166666663
1403715526667142912,-0.0020943951023931952,0.019547687622336492,0.074001960284559576,9.1120122916666659,0.27785508333333331,-3.1708168333333329
1403715526672143104,-0.0069813170079773184,0.014660765716752367,0.076794487087750496,9.3163174999999985,0.38409379166666668,-3.2852277500000002
1403715526677143040,-0.0041887902047863905,0.018849555921538759,0.07749261878854824,9.1692177499999996,0.31871612500000002,-3.1054391666666663
1403715526682142976,-0.0055850536063818549,0.017453292519943295,0.074700091985357306,9.4143839999999983,0.28602729166666663,-3.3097443750000002
1403715526687142912,-0.0020943951023931952,0.023038346126325153,0.08237954069413235,9.2345954166666662,0.28602729166666663,-3.2607111249999998
1403715526692143104,0.0,0.023736477827122883,0.07819075048934597,9.2345954166666662,0.34323275000000003,-3.1544724166666662
1403715526697143040,0.0048869219055841231,0.02583087292951608,0.087964594300514204,9.242767624999999,0.26151066666666667,-3.1217835833333334
1403715526702142976,0.00069813170079773186,0.016057029118347832,0.076794487087750496,9.2264232083333333,0.3105439166666667,-3.2198500833333328
1403715526707142912,0.00069813170079773186,0.018849555921538759,0.08307767239493008,9.3490063333333335,0.43312704166666666,-3.2525389166666665
1403715526712143104,-0.0041887902047863905,0.023736477827122883,0.073303828583761846,9.0956678750000002,0.24516625,-3.2035056666666666
1403715526717143040,-0.0034906585039886592,0.010471975511965976,0.069115038378975438,9.3163174999999985,0.35140495833333335,-3.2361944999999999
1403715526722142976,-0.0027925268031909274,0.012566370614359173,0.073303828583761846,9.3408341249999989,0.26151066666666667,-3.162644625
1403715526727142912,-0.0041887902047863905,0.017453292519943295,0.07609635538695278,9.3571785416666664,0.31871612500000002,-3.366949833333333
1403715526732143104,-0.0020943951023931952,0.0307177948351002,0.08168140899333462,9.2999730833333327,0.32688833333333334,-3.138128
1403715526737143040,-0.0013962634015954637,0.028623399732707,0.08168140899333462,9.2999730833333327,0.35957716666666667,-3.1217835833333334
1403715526742142976,-0.0013962634015954637,0.025132741228718346,0.080285145591739146,9.1365289166666663,0.23699404166666665,-3.1463002083333333
1403715526747142912,0.00069813170079773186,0.014660765716752367,0.074001960284559576,9.2754564583333323,0.3350605416666666,-3.1953334583333328
1403715526752143104,-0.0027925268031909274,0.020943951023931952,0.076794487087750496,9.2836286666666652,0.31871612500000002,-3.2198500833333328
1403715526757143040,-0.0013962634015954637,0.012566370614359173,0.07609635538695278,9.1692177499999996,0.29419949999999995,-3.2198500833333328
1403715526762142976,-0.0020943951023931952,0.013962634015954637,0.07609635538695278,9.3490063333333335,0.26968287499999999,-3.2361944999999999
1403715526767142912,0.0,0.016755160819145562,0.076794487087750496,9.1773899583333325,0.28602729166666663,-3.2116778749999999
1403715526772143104,0.0027925268031909274,0.020943951023931952,0.074700091985357306,9.3081452916666674,0.3105439166666667,-3.2035056666666666
1403715526777143040,-0.00069813170079773186,0.021642082724729686,0.08168140899333462,9.2019065833333329,0.29419949999999995,-3.2035056666666666
1403715526782142976,-0.00069813170079773186,0.027925268031909273,0.084473935796525554,9.2509398333333337,0.37592158333333331,-3.2116778749999999
1403715526787142912,-0.0020943951023931952,0.025132741228718346,0.084473935796525554,9.1283567083333317,0.35957716666666667,-3.1463002083333333
1403715526792143104,-0.0055850536063818549,0.021642082724729686,0.07609635538695278,9.2672842499999994,0.35140495833333335,-3.2035056666666666
1403715526797143040,-0.0055850536063818549,0.016755160819145562,0.08168140899333462,9.0956678750000002,0.196133,-3.1299557916666663
1403715526802142976,-0.0055850536063818549,0.017453292519943295,0.078888882190143686,9.2918008749999998,0.22064962499999999,-3.2525389166666665
1403715526807142912,-0.0013962634015954637,0.014660765716752367,0.076794487087750496,9.2754564583333323,0.21247741666666667,-3.1789890416666662
1403715526812143104,0.00069813170079773186,0.012566370614359173,0.069813170079773182,9.3408341249999989,0.28602729166666663,-3.2607111249999998
1403715526817143040,0.0041887902047863905,0.019547687622336492,0.075398223686155036,9.3244897083333331,0.29419949999999995,-3.2116778749999999
1403715526822142976,0.0034906585039886592,0.023736477827122883,0.07958701389094143,9.3163174999999985,0.392266,-3.2688833333333331
1403715526827142912,0.0013962634015954637,0.028623399732707,0.07749261878854824,9.3163174999999985,0.49850470833333332,-3.2035056666666666
1403715526832143104,-0.0041887902047863905,0.024434609527920613,0.08168140899333462,9.193734375,0.35957716666666667,-3.1708168333333329
1403715526837143040,-0.0097738438111682462,0.024434609527920613,0.07749261878854824,9.1692177499999996,0.392266,-3.138128
1403715526842142976,-0.008377580409572781,0.013264502315156905,0.085172067497323284,9.1610455416666667,0.25333845833333329,-3.1871612499999999
1403715526847142912,-0.01117010721276371,0.016755160819145562,0.074700091985357306,9.2509398333333337,0.29419949999999995,-3.2361944999999999
1403715526852143104,-0.0055850536063818549,0.010471975511965976,0.08237954069413235,9.2999730833333327,0.18796079166666665,-3.1953334583333328
1403715526857143040,0.0013962634015954637,0.013264502315156905,0.067020643276582248,9.5614837499999989,0.13075533333333333,-3.3587776250000001
1403715526862142976,0.0069813170079773184,0.020245819323134219,0.072605696882964116,9.4143839999999983,0.35957716666666667,-3.4813607499999994
1403715526867142912,0.0069813170079773184,0.022340214425527419,0.07958701389094143,9.3408341249999989,0.40861041666666664,-3.2688833333333331
1403715526872143104,0.0034906585039886592,0.032812189937493394,0.08237954069413235,9.5042782916666653,0.46581587499999999,-3.2852277500000002
1403715526877143040,-0.0048869219055841231,0.02652900463031381,0.08377580409572781,9.2836286666666652,0.3350605416666666,-3.1871612499999999
1403715526882142976,-0.0013962634015954637,0.020943951023931952,0.076794487087750496,9.5451393333333332,0.26151066666666667,-3.3260887916666664
1403715526887142912,-0.0041887902047863905,0.020943951023931952,0.078888882190143686,9.1692177499999996,0.16344416666666667,-3.1299557916666663
1403715526892143104,-0.0048869219055841231,0.0048869219055841231,0.072605696882964116,9.3653507499999993,0.17161637500000002,-3.2361944999999999
1403715526897143040,0.0090757121103705145,0.010471975511965976,0.097040306410884708,9.6595502499999988,0.36774937499999999,-3.2116778749999999
1403715526902142976,0.0027925268031909274,0.014660765716752367,0.093549647906896058,9.7903055833333319,0.69463770833333327,-3.3506054166666663
1403715526907142912,-0.016755160819145562,0.061435589670200401,0.090058989402907408,9.3571785416666664,0.5475379583333333,-3.3506054166666663
1403715526912143104,-0.039095375244672985,0.02583087292951608,0.065624379874986788,8.3683413333333334,0.13892754166666665,-2.6723121249999999
1403715526917143040,-0.019547687622336492,0.0062831853071795866,0.066322511575784518,8.9322237083333338,-0.23699404166666665,-2.9746838333333332
1403715526922142976,0.018849555921538759,0.00069813170079773186,0.086568330898918744,8.5072688749999994,-0.032688833333333334,-2.9256505833333333
1403715526927142912,0.037699111843077518,0.0069813170079773184,0.078888882190143686,9.6186892083333326,0.34323275000000003,-3.3015721666666664
1403715526932143104,0.023038346126325153,0.033510321638291124,0.07609635538695278,8.3274802916666655,0.61291562499999996,-2.9501672083333332
1403715526937143040,-0.0041887902047863905,-0.0069813170079773184,0.044680428851054839,8.883190458333333,0.76001537499999994,-3.0645781249999997
1403715526942142976,-0.018849555921538759,0.014660765716752367,0.060737457969402671,8.8586738333333326,0.58022679166666657,-2.9501672083333332
1403715526947142912,-0.014660765716752367,-0.016755160819145562,0.091455252804502868,8.9240514999999991,0.52302133333333334,-3.2280222916666665
1403715526952143104,-0.01117010721276371,0.019547687622336492,0.094247779607693802,9.8475110416666656,0.22064962499999999,-3.4404997083333333
1403715526957143040,-0.01117010721276371,0.048869219055841226,0.090757121103705138,8.8259849999999993,0.43312704166666666,-3.1544724166666662
1403715526962142976,-0.018849555921538759,-0.0013962634015954637,0.073303828583761846,9.0711512499999998,0.16344416666666667,-3.1789890416666662
1403715526967142912,-0.021642082724729686,0.013962634015954637,0.05305800926062762,9.1610455416666667,0.0081722083333333334,-3.1789890416666662
1403715526972143104,0.0090757121103705145,-0.0034906585039886592,0.080983277292536876,9.2182509999999986,-0.024516625,-3.3179165833333331
1403715526977143040,0.020943951023931952,0.0097738438111682462,0.084473935796525554,9.9374053333333343,0.073549874999999987,-3.5467384166666669
1403715526982142976,0.022340214425527419,0.050963614158234416,0.074700091985357306,8.9812569583333328,0.53936574999999998,-3.2116778749999999
1403715526987142912,-0.0041887902047863905,0.011868238913561441,0.056548667764616284,9.4307284166666658,0.24516625,-3.2361944999999999
1403715526992143104,-0.01117010721276371,0.02583087292951608,0.048171087355043489,9.4634172499999991,0.13075533333333333,-3.2361944999999999
1403715526997143040,0.0034906585039886592,0.013264502315156905,0.08377580409572781,9.1038400833333331,0.35957716666666667,-3.2280222916666665
1403715527002142976,-0.008377580409572781,0.034208453339088861,0.085870199198121014,10.035471833333334,0.35140495833333335,-3.5222217916666665
1403715527007142912,-0.013264502315156905,0.061435589670200401,0.092851516206098328,9.0629790416666669,0.48216029166666663,-3.1136113750000001
1403715527012143104,-0.020943951023931952,0.021642082724729686,0.074700091985357306,9.1201845000000006,-0.089894291666666667,-3.1136113750000001
1403715527017143040,-0.01117010721276371,0.032114058236695664,0.068416906678177722,9.332661916666666,-0.16344416666666667,-3.0482337083333335
1403715527022142976,0.011868238913561441,0.0041887902047863905,0.087964594300514204,9.0057735833333332,0.22882183333333334,-3.138128
1403715527027142912,0.020943951023931952,0.01117010721276371,0.099832833214075656,9.733100125,0.27785508333333331,-3.3342610000000001
1403715527032143104,0.018849555921538759,0.044680428851054839,0.10262536001726656,9.0548068333333322,0.5475379583333333,-3.1217835833333334
1403715527037143040,0.0097738438111682462,0.008377580409572781,0.080285145591739146,9.332661916666666,0.49850470833333332,-3.1953334583333328
1403715527042142976,-0.0090757121103705145,0.017453292519943295,0.062133721370998138,9.1855621666666654,0.47398808333333331,-3.1136113750000001
1403715527047142912,-0.0153588974175501,-0.010471975511965976,0.059341194567807204,9.0139457916666661,0.52302133333333334,-3.1871612499999999
1403715527052143104,-0.0027925268031909274,0.0020943951023931952,0.086568330898918744,9.6595502499999988,0.53119354166666666,-3.2770555416666665
1403715527057143040,-0.0055850536063818549,0.032114058236695664,0.090058989402907408,9.1610455416666667,0.58022679166666657,-3.2361944999999999
1403715527062142976,-0.014660765716752367,0.013264502315156905,0.08307767239493008,9.1120122916666659,0.62108783333333339,-3.1708168333333329
1403715527067142912,-0.016057029118347832,0.025132741228718346,0.066322511575784518,9.332661916666666,0.30237170833333332,-3.1708168333333329
1403715527072143104,-0.016057029118347832,0.008377580409572781,0.041189770347066175,8.9730847499999999,0.024516625,-3.0809225416666663
1403715527077143040,0.0027925268031909274,-0.00069813170079773186,0.063529984772593598,9.2182509999999986,0.17978858333333333,-3.2443667083333327
1403715527082142976,0.016057029118347832,0.021642082724729686,0.07749261878854824,9.3980395833333326,0.28602729166666663,-3.2198500833333328
1403715527087142912,0.023038346126325153,0.025132741228718346,0.094247779607693802,9.0629790416666669,0.58022679166666657,-3.3015721666666664
1403715527092143104,0.0034906585039886592,0.024434609527920613,0.075398223686155036,9.2182509999999986,0.6292600416666666,-3.1463002083333333
1403715527097143040,-0.016057029118347832,0.024434609527920613,0.067718774977379978,9.0874956666666655,0.27785508333333331,-3.1217835833333334
1403715527102142976,-0.020245819323134219,0.016057029118347832,0.055152404363020817,8.9240514999999991,-0.065377666666666667,-3.0972669583333334
1403715527107142912,-0.0020943951023931952,0.012566370614359173,0.08307767239493008,9.3571785416666664,0.30237170833333332,-3.1217835833333334
1403715527112143104,0.0034906585039886592,0.033510321638291124,0.097738438111682452,9.3081452916666674,0.10623870833333333,-3.138128
1403715527117143040,0.0055850536063818549,0.030019663134302467,0.10262536001726656,9.1610455416666667,0.40043820833333332,-3.1299557916666663
1403715527122142976,0.00069813170079773186,0.027925268031909273,0.090058989402907408,9.3244897083333331,0.25333845833333329,-3.0972669583333334
1403715527127142912,-0.0076794487087750501,0.033510321638291124,0.068416906678177722,9.3653507499999993,0.122583125,-3.162644625
1403715527132143104,-0.0069813170079773184,0.016755160819145562,0.05445427266222308,9.0629790416666669,-0.089894291666666667,-3.0155448749999998
1403715527137143040,0.010471975511965976,0.013264502315156905,0.067020643276582248,9.5778281666666665,0.28602729166666663,-3.2116778749999999
1403715527142142976,0.017453292519943295,0.02722713633111154,0.098436569812480182,9.2509398333333337,0.32688833333333334,-3.3015721666666664
1403715527147142912,0.008377580409572781,0.020943951023931952,0.094247779607693802,9.4470728333333334,0.6701210833333332,-3.3097443750000002
1403715527152143104,-0.014660765716752367,0.028623399732707,0.085172067497323284,9.3898673749999997,0.57205458333333326,-3.1217835833333334
1403715527157143040,-0.028623399732707,0.0153588974175501,0.060039326268604934,9.0548068333333322,0.13075533333333333,-3.1217835833333334
1403715527162142976,-0.020943951023931952,0.0,0.057246799465414,9.4143839999999983,-0.0081722083333333334,-3.162644625
1403715527167142912,-0.00069813170079773186,0.0069813170079773184,0.067718774977379978,9.3735229583333322,0.14709974999999997,-3.2443667083333327
1403715527172143104,0.0090757121103705145,0.0097738438111682462,0.084473935796525554,9.2264232083333333,0.22882183333333334,-3.162644625
1403715527177143040,0.010471975511965976,0.012566370614359173,0.092851516206098328,9.5696559583333336,0.47398808333333331,-3.366949833333333
1403715527182142976,0.0020943951023931952,0.025132741228718346,0.090058989402907408,9.1283567083333317,0.65377666666666667,-3.0727503333333335
1403715527187142912,-0.013264502315156905,0.010471975511965976,0.07609635538695278,9.0793234583333327,0.3350605416666666,-3.1708168333333329
1403715527192143104,-0.013264502315156905,0.0069813170079773184,0.055850536063818547,9.4797616666666666,0.17978858333333333,-3.3015721666666664
1403715527197143040,-0.0013962634015954637,0.011868238913561441,0.071209433481368656,9.1855621666666654,0.24516625,-3.2361944999999999
1403715527202142976,0.01117010721276371,0.016057029118347832,0.08168140899333462,9.1120122916666659,0.4494714583333333,-3.2443667083333327
1403715527207142912,0.0069813170079773184,0.018151424220741029,0.10471975511965977,9.2591120416666666,0.5475379583333333,-3.2933999583333331
1403715527212143104,-0.0055850536063818549,0.02583087292951608,0.096342174710086978,9.1283567083333317,0.50667691666666659,-3.1708168333333329
1403715527217143040,-0.012566370614359173,0.019547687622336492,0.07749261878854824,9.1692177499999996,0.36774937499999999,-3.1871612499999999
1403715527222142976,-0.011868238913561441,0.014660765716752367,0.062831853071795868,9.2264232083333333,0.065377666666666667,-3.2525389166666665
1403715527227142912,-0.0041887902047863905,0.010471975511965976,0.05305800926062762,9.1201845000000006,0.040861041666666667,-3.3015721666666664
1403715527232143104,0.0076794487087750501,0.014660765716752367,0.061435589670200401,9.332661916666666,0.30237170833333332,-3.2770555416666665
1403715527237143040,0.010471975511965976,0.031415926535897934,0.085870199198121014,9.3081452916666674,0.42495483333333334,-3.2933999583333331
1403715527242142976,0.0048869219055841231,0.02722713633111154,0.090757121103705138,8.9403959166666649,0.35957716666666667,-3.0727503333333335
1403715527247142912,-0.0020943951023931952,0.023038346126325153,0.086568330898918744,9.2754564583333323,0.53119354166666666,-3.2361944999999999
1403715527252143104,-0.0153588974175501,0.021642082724729686,0.073303828583761846,9.3081452916666674,0.27785508333333331,-3.342433208333333
1403715527257143040,-0.013264502315156905,0.024434609527920613,0.055152404363020817,9.2999730833333327,-0.0081722083333333334,-3.1789890416666662
1403715527262142976,-0.0020943951023931952,0.017453292519943295,0.068416906678177722,9.2918008749999998,0.37592158333333331,-3.3097443750000002
1403715527267142912,-0.013264502315156905,0.030019663134302467,0.074700091985357306,9.3653507499999993,0.45764366666666667,-3.2933999583333331
1403715527272143104,-0.0090757121103705145,0.038397243543875248,0.095644043009289262,9.3735229583333322,0.04903325,-3.3097443750000002
1403715527277143040,0.0041887902047863905,0.032812189937493394,0.099832833214075656,9.2509398333333337,0.0081722083333333334,-3.1544724166666662
1403715527282142976,0.013962634015954637,0.023736477827122883,0.10122909661567112,9.4961060833333324,0.17161637500000002,-3.2198500833333328
1403715527287142912,0.013962634015954637,0.028623399732707,0.069813170079773182,9.7412723333333329,-0.38409379166666668,-3.2035056666666666
1403715527292143104,0.036302848441482058,0.023038346126325153,0.046774823953448029,9.6513780416666659,-0.38409379166666668,-3.1708168333333329
1403715527297143040,0.055850536063818547,0.032114058236695664,0.063529984772593598,9.0956678750000002,0.67829329166666663,-3.0482337083333335
1403715527302142976,0.037699111843077518,0.0090757121103705145,0.08168140899333462,9.3571785416666664,1.2912089166666665,-3.1708168333333329
1403715527307142912,-0.013264502315156905,0.023038346126325153,0.091455252804502868,9.5124504999999999,1.3647587916666666,-3.3015721666666664
1403715527312143104,-0.07609635538695278,0.0153588974175501,0.085870199198121014,9.0711512499999998,0.90711512499999991,-3.0400614999999998
1403715527317143040,-0.087964594300514204,0.014660765716752367,0.07958701389094143,9.1528733333333321,0.11441091666666667,-3.1217835833333334
1403715527322142976,-0.070511301780570912,0.0090757121103705145,0.065624379874986788,9.0302902083333318,-0.4494714583333333,-2.8847895416666667
1403715527327142912,-0.008377580409572781,0.0090757121103705145,0.071209433481368656,9.3898673749999997,-0.90711512499999991,-2.9992004583333332
1403715527332143104,0.050265482457436693,0.021642082724729686,0.076794487087750496,9.0956678750000002,-0.64560445833333324,-3.0237170833333331
1403715527337143040,0.080285145591739146,0.018151424220741029,0.07609635538695278,9.1283567083333317,0.38409379166666668,-3.2688833333333331
1403715527342142976,0.057246799465414,0.023038346126325153,0.065624379874986788,8.8423294166666651,1.0623870833333333,-3.1463002083333333
1403715527347142912,0.013962634015954637,0.013962634015954637,0.068416906678177722,9.332661916666666,1.4137920416666665,-3.1708168333333329
1403715527352143104,-0.014660765716752367,0.028623399732707,0.092851516206098328,9.0221180000000007,0.89894291666666659,-3.1136113750000001
1403715527357143040,-0.035604716740684328,-0.0041887902047863905,0.089360857702109678,8.9567403333333324,0.55571016666666662,-3.1544724166666662
1403715527362142976,-0.047472955654245766,0.018151424220741029,0.070511301780570912,9.3244897083333331,0.081722083333333334,-3.4813607499999994
1403715527367142912,-0.035604716740684328,-0.0013962634015954637,0.071907565182166372,9.1201845000000006,0.10623870833333333,-3.1544724166666662
1403715527372143104,-0.010471975511965976,0.023736477827122883,0.067020643276582248,9.7821333750000008,-0.21247741666666667,-3.3587776250000001
1403715527377143040,0.023736477827122883,0.022340214425527419,0.087266462599716474,8.7197462916666666,0.057205458333333334,-2.9828560416666661
1403715527382142976,0.023038346126325153,0.0041887902047863905,0.075398223686155036,9.7004112916666649,0.34323275000000003,-3.5222217916666665
1403715527387142912,0.0048869219055841231,0.031415926535897934,0.066322511575784518,9.1692177499999996,0.35140495833333335,-3.1136113750000001
1403715527392143104,0.0076794487087750501,0.0097738438111682462,0.063529984772593598,9.2999730833333327,0.10623870833333333,-3.1544724166666662
1403715527397143040,0.030019663134302467,0.022340214425527419,0.095644043009289262,9.0711512499999998,0.27785508333333331,-3.138128
1403715527402142976,0.018151424220741029,-0.0020943951023931952,0.08168140899333462,9.2100787916666658,0.36774937499999999,-3.4486719166666666
1403715527407142912,-0.013264502315156905,0.0090757121103705145,0.060737457969402671,9.242767624999999,0.78453200000000001,-3.1708168333333329
1403715527412143104,-0.027925268031909273,0.013962634015954637,0.067020643276582248,9.4307284166666658,0.46581587499999999,-3.0482337083333335
1403715527417143040,-0.021642082724729686,0.019547687622336492,0.097738438111682452,9.0302902083333318,-0.13892754166666665,-3.1789890416666662
1403715527422142976,-0.016755160819145562,0.0041887902047863905,0.093549647906896058,9.5124504999999999,-0.30237170833333332,-3.1871612499999999
1403715527427142912,-0.018151424220741029,0.034208453339088861,0.070511301780570912,9.5451393333333332,-0.04903325,-3.1708168333333329
1403715527432143104,-0.0041887902047863905,0.019547687622336492,0.08168140899333462,9.193734375,-0.40861041666666664,-2.8766173333333334
1403715527437143040,0.033510321638291124,0.023736477827122883,0.099832833214075656,9.3490063333333335,-0.17978858333333333,-3.1789890416666662
1403715527442142976,0.041189770347066175,0.01117010721276371,0.085870199198121014,9.4307284166666658,0.065377666666666667,-3.3506054166666663
1403715527447142912,0.010471975511965976,0.018151424220741029,0.065624379874986788,9.4634172499999991,1.0787315,-3.3587776250000001
1403715527452143104,-0.013962634015954637,0.033510321638291124,0.060039326268604934,9.1283567083333317,0.53936574999999998,-3.1789890416666662
1403715527457143040,-0.0013962634015954637,0.013264502315156905,0.090058989402907408,8.6543686249999983,0.35140495833333335,-3.0972669583333334
1403715527462142976,0.0062831853071795866,0.0034906585039886592,0.090757121103705138,9.9782663750000005,0.25333845833333329,-3.6366327083333334
1403715527467142912,-0.018849555921538759,0.025132741228718346,0.058643062867009467,9.2019065833333329,1.054214875,-3.1789890416666662
1403715527472143104,-0.042586033748661642,0.032812189937493394,0.050265482457436693,8.744262916666667,0.44129924999999998,-3.0318892916666664
1403715527477143040,-0.013264502315156905,0.0013962634015954637,0.092153384505300612,8.7115740833333319,-0.04903325,-2.9256505833333333
1403715527482142976,-0.0062831853071795866,0.018151424220741029,0.08307767239493008,10.051816249999998,0.065377666666666667,-3.6611493333333334
1403715527487142912,-0.008377580409572781,0.038397243543875248,0.074700091985357306,8.9730847499999999,0.5475379583333333,-3.0482337083333335
1403715527492143104,-0.0027925268031909274,0.035604716740684328,0.07609635538695278,8.6298519999999996,0.081722083333333334,-2.8929617499999996
1403715527497143040,0.046076692252650306,0.0062831853071795866,0.10681415022205297,8.9240514999999991,-0.30237170833333332,-3.0645781249999997
1403715527502142976,0.042586033748661642,0.021642082724729686,0.084473935796525554,9.9210609166666668,0.49850470833333332,-3.4977051666666665
1403715527507142912,0.0069813170079773184,0.05166174585903216,0.050963614158234416,9.1283567083333317,1.1277647500000001,-3.1708168333333329
1403715527512143104,-0.014660765716752367,0.031415926535897934,0.075398223686155036,8.4173745833333324,0.55571016666666662,-3.0237170833333331
1403715527517143040,-0.0041887902047863905,0.0055850536063818549,0.094247779607693802,9.8556832499999985,-0.0081722083333333334,-3.4241552916666667
1403715527522142976,-0.014660765716752367,0.036302848441482058,0.070511301780570912,9.5042782916666653,0.57205458333333326,-3.2443667083333327
1403715527527142912,-0.039095375244672985,0.037699111843077518,0.050963614158234416,8.9812569583333328,0.50667691666666659,-3.0809225416666663
1403715527532143104,-0.0097738438111682462,0.0055850536063818549,0.094945911308491532,8.9649125416666671,-0.30237170833333332,-2.8847895416666667
1403715527537143040,0.0097738438111682462,0.018849555921538759,0.08307767239493008,10.084505083333333,-0.122583125,-3.4323274999999995
1403715527542142976,0.0,0.038397243543875248,0.050963614158234416,9.0874956666666655,0.51484912499999991,-3.0318892916666664
1403715527547142912,-0.0069813170079773184,0.018849555921538759,0.071907565182166372,8.8586738333333326,0.44129924999999998,-3.1136113750000001
1403715527552143104,0.013264502315156905,0.008377580409572781,0.10611601852125524,9.5451393333333332,-0.098066500000000001,-3.2280222916666665
1403715527557143040,0.0153588974175501,0.039793506945470715,0.094247779607693802,9.8066499999999994,0.10623870833333333,-3.2607111249999998
1403715527562142976,-0.0069813170079773184,0.0307177948351002,0.055152404363020817,8.8423294166666651,0.60474341666666664,-3.0972669583333334
1403715527567142912,-0.0027925268031909274,-0.0097738438111682462,0.085870199198121014,8.6952296666666662,0.23699404166666665,-3.0482337083333335
1403715527572143104,0.0097738438111682462,0.008377580409572781,0.097040306410884708,10.288810291666666,0.024516625,-3.4404997083333333
1403715527577143040,-0.0055850536063818549,0.029321531433504733,0.033510321638291124,8.834157208333334,0.34323275000000003,-3.0890947499999997
1403715527582142976,-0.013962634015954637,-0.0027925268031909274,0.065624379874986788,8.6298519999999996,0.69463770833333327,-3.0482337083333335
1403715527587142912,-0.0013962634015954637,-0.0062831853071795866,0.10192722831646883,9.6840668749999992,0.35140495833333335,-3.2361944999999999
1403715527592143104,-0.0055850536063818549,0.032812189937493394,0.078888882190143686,9.7984777916666665,0.0081722083333333334,-3.2198500833333328
1403715527597143040,-0.011868238913561441,0.013962634015954637,0.058643062867009467,8.6625408333333329,0.43312704166666666,-3.0482337083333335
1403715527602142976,0.0020943951023931952,-0.0090757121103705145,0.093549647906896058,9.1038400833333331,0.67829329166666663,-3.1789890416666662
1403715527607142912,0.008377580409572781,0.028623399732707,0.1165879940332212,10.002782999999999,-0.0081722083333333334,-3.4731885416666666
1403715527612143104,-0.0034906585039886592,0.037699111843077518,0.046774823953448029,9.3081452916666674,0.032688833333333334,-3.2280222916666665
1403715527617143040,0.0041887902047863905,0.0020943951023931952,0.068416906678177722,8.5971631666666664,0.77635979166666658,-3.0237170833333331
1403715527622142976,0.0034906585039886592,0.013264502315156905,0.092851516206098328,9.7167557083333325,0.47398808333333331,-3.3751220416666667
1403715527627142912,-0.01117010721276371,0.037699111843077518,0.056548667764616284,8.9077070833333334,0.0,-2.9910282499999998
1403715527632143104,-0.011868238913561441,-0.018151424220741029,0.055152404363020817,8.6543686249999983,0.6701210833333332,-3.0890947499999997
1403715527637143040,0.0,0.0048869219055841231,0.096342174710086978,10.117193916666666,0.61291562499999996,-3.4977051666666665
1403715527642142976,-0.016057029118347832,0.028623399732707,0.080983277292536876,8.572646541666666,-0.016344416666666667,-3.0890947499999997
1403715527647142912,-0.0013962634015954637,-0.0034906585039886592,0.062831853071795868,9.1773899583333325,0.11441091666666667,-3.342433208333333
1403715527652143104,0.016755160819145562,0.00069813170079773186,0.099134701513277898,9.4389006250000005,0.32688833333333334,-3.162644625
1403715527657143040,0.012566370614359173,0.035604716740684328,0.072605696882964116,9.422556208333333,0.10623870833333333,-3.1054391666666663
1403715527662142976,0.013962634015954637,0.0055850536063818549,0.072605696882964116,9.2264232083333333,0.11441091666666667,-3.4977051666666665
1403715527667142912,0.010471975511965976,0.018151424220741029,0.084473935796525554,9.6350336250000002,1.0623870833333333,-3.3260887916666664
1403715527672143104,-0.016755160819145562,0.059341194567807204,0.071907565182166372,9.0956678750000002,0.15527195833333335,-2.582417833333333
1403715527677143040,-0.018849555921538759,-0.0020943951023931952,0.065624379874986788,9.1528733333333321,0.10623870833333333,-2.8439284999999996
1403715527682142976,-0.0090757121103705145,-0.0020943951023931952,0.094945911308491532,10.149882749999998,0.35957716666666667,-3.2852277500000002
1403715527687142912,-0.025132741228718346,0.044680428851054839,0.061435589670200401,8.6788852500000004,-0.17161637500000002,-3.0727503333333335
1403715527692143104,-0.010471975511965976,-0.0062831853071795866,0.058643062867009467,8.9567403333333324,0.040861041666666667,-3.2852277500000002
1403715527697143040,0.0062831853071795866,0.013962634015954637,0.087266462599716474,9.7249279166666671,0.40043820833333332,-3.4078108749999996
1403715527702142976,0.0041887902047863905,0.056548667764616284,0.073303828583761846,8.5971631666666664,-0.17978858333333333,-3.3587776250000001
1403715527707142912,0.013962634015954637,-0.0097738438111682462,0.066322511575784518,8.6461964166666672,0.032688833333333334,-3.3832942499999996
1403715527712143104,0.025132741228718346,0.011868238913561441,0.089360857702109678,9.994610791666668,0.71915433333333334,-3.5222217916666665
1403715527717143040,0.0013962634015954637,0.055152404363020817,0.068416906678177722,8.4990966666666665,-0.040861041666666667,-2.7703786249999998
1403715527722142976,0.0062831853071795866,-0.02652900463031381,0.070511301780570912,8.8423294166666651,0.4903325,-2.9093061666666666
1403715527727142912,-0.0020943951023931952,0.023038346126325153,0.10471975511965977,10.288810291666666,1.0133538333333332,-3.5549106249999998
1403715527732143104,-0.0307177948351002,0.059341194567807204,0.088662726001311934,8.0496252083333317,-0.31871612500000002,-3.4895329583333332
1403715527737143040,-0.017453292519943295,-0.0097738438111682462,0.092153384505300612,9.6268614166666655,0.18796079166666665,-3.0482337083333335
1403715527742142976,-0.0062831853071795866,0.060039326268604934,0.11030480872604163,9.7085834999999996,0.71098212499999991,-2.9338227916666666
1403715527747142912,-0.010471975511965976,0.037699111843077518,0.073303828583761846,8.2702748333333336,-0.49850470833333332,-3.3587776250000001
1403715527752143104,0.019547687622336492,-0.016057029118347832,0.085870199198121014,9.5778281666666665,0.17161637500000002,-3.2933999583333331
1403715527757143040,0.020943951023931952,0.064926248174189058,0.08307767239493008,10.084505083333333,0.66194887499999999,-2.8929617499999996
1403715527762142976,0.010471975511965976,0.0069813170079773184,0.044680428851054839,7.7799423333333326,-0.40043820833333332,-3.1544724166666662
1403715527767142912,0.022340214425527419,-0.041887902047863905,0.056548667764616284,10.051816249999998,0.96432058333333326,-3.1463002083333333
1403715527772143104,-0.00069813170079773186,0.060039326268604934,0.072605696882964116,10.010955208333332,0.98066500000000001,-3.2770555416666665
1403715527777143040,-0.02722713633111154,0.0034906585039886592,0.046774823953448029,8.1640361249999991,-0.098066500000000001,-3.1544724166666662
1403715527782142976,-0.018151424220741029,-0.016755160819145562,0.08237954069413235,10.076332875,1.1195925416666666,-3.2688833333333331
1403715527787142912,-0.02652900463031381,0.08307767239493008,0.096342174710086978,8.7524351249999999,-0.073549874999999987,-2.9910282499999998
1403715527792143104,-0.014660765716752367,-0.016755160819145562,0.085870199198121014,8.793296166666666,-0.30237170833333332,-3.1544724166666662
1403715527797143040,0.020245819323134219,0.016755160819145562,0.10611601852125524,10.705592916666665,0.80087641666666665,-3.2770555416666665
1403715527802142976,-0.0055850536063818549,0.070511301780570912,0.080983277292536876,8.7115740833333319,0.032688833333333334,-3.1217835833333334
1403715527807142912,0.0090757121103705145,-0.048171087355043489,0.067020643276582248,8.4173745833333324,0.040861041666666667,-3.1136113750000001
1403715527812143104,0.014660765716752367,0.0090757121103705145,0.07609635538695278,10.893553708333332,1.1114203333333332,-3.3342610000000001
1403715527817143040,-0.020943951023931952,0.045378560551852569,0.065624379874986788,7.9270420833333333,0.098066500000000001,-3.0564059166666664
1403715527822142976,-0.0027925268031909274,-0.061435589670200401,0.071209433481368656,8.6870574583333333,0.196133,-3.1463002083333333
1403715527827142912,0.008377580409572781,0.02722713633111154,0.094945911308491532,10.6892485,0.84990966666666667,-3.2525389166666665
1403715527832143104,-0.010471975511965976,0.024434609527920613,0.08377580409572781,7.9679031249999994,-0.22064962499999999,-3.0727503333333335
1403715527837143040,0.01117010721276371,-0.064926248174189058,0.095644043009289262,10.476771083333333,1.0378704583333334,-3.4323274999999995
1403715527842142976,-0.018151424220741029,0.059341194567807204,0.069115038378975438,9.6186892083333326,0.49850470833333332,-3.1708168333333329
1403715527847142912,-0.029321531433504733,-0.012566370614359173,0.044680428851054839,7.7881145416666664,-0.13892754166666665,-2.9828560416666661
1403715527852143104,0.0097738438111682462,-0.030019663134302467,0.07819075048934597,10.909898125,0.52302133333333334,-3.4404997083333333
1403715527857143040,-0.008377580409572781,0.10471975511965977,0.07609635538695278,9.1365289166666663,0.0,-3.2280222916666665
1403715527862142976,0.0069813170079773184,-0.037699111843077518,0.087266462599716474,7.5592927083333334,-0.17161637500000002,-2.9992004583333332
1403715527867142912,0.020245819323134219,-0.0027925268031909274,0.094247779607693802,11.261303083333333,1.0215260416666667,-3.7101825833333333
1403715527872143104,-0.0097738438111682462,0.084473935796525554,0.094945911308491532,7.7145646666666661,0.0081722083333333334,-2.9501672083333332
1403715527877143040,0.0062831853071795866,-0.072605696882964116,0.087266462599716474,8.3683413333333334,0.17978858333333333,-2.9828560416666661
1403715527882142976,-0.0055850536063818549,0.043982297150257102,0.071209433481368656,11.056997874999999,0.93163174999999998,-3.7510436249999999
1403715527887142912,-0.023736477827122883,0.057246799465414,0.048171087355043489,7.4612262083333336,-0.17978858333333333,-2.6804843333333328
1403715527892143104,0.0034906585039886592,-0.072605696882964116,0.08168140899333462,10.640215249999999,0.53119354166666666,-3.3914664583333329
1403715527897143040,-0.012566370614359173,0.10262536001726656,0.065624379874986788,9.2019065833333329,-0.196133,-3.0645781249999997
1403715527902142976,0.016057029118347832,-0.037000980142279788,0.07958701389094143,7.7472535000000002,0.17978858333333333,-3.0073726666666665
1403715527907142912,0.0090757121103705145,0.023736477827122883,0.07819075048934597,10.803659416666665,0.98883720833333322,-3.4078108749999996
1403715527912143104,-0.0090757121103705145,0.092153384505300612,0.080983277292536876,8.2621026249999989,0.065377666666666667,-2.6069344583333329
1403715527917143040,0.0062831853071795866,-0.057246799465414,0.1096066770252439,8.6216797916666668,0.3105439166666667,-3.0564059166666664
1403715527922142976,-0.0048869219055841231,0.063529984772593598,0.096342174710086978,10.885381500000001,0.17161637500000002,-3.6938381666666662
1403715527927142912,0.0020943951023931952,0.02652900463031381,0.086568330898918744,7.8534922083333321,0.073549874999999987,-2.827584083333333
1403715527932143104,0.008377580409572781,-0.032114058236695664,0.071209433481368656,9.9047164999999993,0.80087641666666665,-3.4486719166666666
1403715527937143040,-0.010471975511965976,0.08168140899333462,0.07819075048934597,9.7821333750000008,0.089894291666666667,-2.9910282499999998
1403715527942142976,0.0055850536063818549,-0.020943951023931952,0.073303828583761846,8.1640361249999991,0.38409379166666668,-3.5467384166666669
1403715527947142912,-0.010471975511965976,-0.0034906585039886592,0.058643062867009467,10.787315,-0.0081722083333333334,-3.6121160833333334
1403715527952143104,-0.0027925268031909274,0.033510321638291124,0.069115038378975438,8.253930416666666,0.40861041666666664,-3.0318892916666664
1403715527957143040,-0.0076794487087750501,-0.013264502315156905,0.05166174585903216,9.3898673749999997,0.53119354166666666,-3.2525389166666665
1403715527962142976,0.0020943951023931952,0.050265482457436693,0.07958701389094143,9.7494445416666657,0.065377666666666667,-3.2852277500000002
1403715527967142912,0.0055850536063818549,0.019547687622336492,0.075398223686155036,9.2754564583333323,0.8253930416666666,-3.5467384166666669
1403715527972143104,-0.032114058236695664,0.046076692252650306,0.048171087355043489,9.9292331249999997,0.073549874999999987,-3.6693215416666662
1403715527977143040,-0.0020943951023931952,0.058643062867009467,0.08168140899333462,8.7687795416666656,0.50667691666666659,-3.0890947499999997
1403715527982142976,-0.018151424220741029,0.041189770347066175,0.063529984772593598,8.9158792916666663,0.22882183333333334,-2.8684451249999996
1403715527987142912,-0.00069813170079773186,0.043982297150257102,0.08377580409572781,8.8096405833333318,-0.23699404166666665,-3.0400614999999998
1403715527992143104,0.018151424220741029,0.0076794487087750501,0.090058989402907408,9.2100787916666658,0.73549874999999998,-3.2280222916666665
1403715527997143040,-0.011868238913561441,0.049567350756638949,0.056548667764616284,8.7851239583333331,-0.25333845833333329,-2.8194118749999997
1403715528002142976,0.02583087292951608,-0.010471975511965976,0.099134701513277898,9.0057735833333332,0.78453200000000001,-3.0727503333333335
1403715528007142912,-0.0048869219055841231,0.024434609527920613,0.046774823953448029,9.9700941666666658,0.53119354166666666,-3.8491101249999997
1403715528012143104,0.011868238913561441,0.018849555921538759,0.070511301780570912,8.3846857499999992,0.71098212499999991,-3.0727503333333335
1403715528017143040,-0.0062831853071795866,-0.0034906585039886592,0.046076692252650306,10.198916000000001,0.28602729166666663,-3.1463002083333333
1403715528022142976,-0.019547687622336492,0.023038346126325153,0.05305800926062762,8.6952296666666662,-0.27785508333333331,-2.9338227916666666
1403715528027142912,-0.008377580409572781,-0.048171087355043489,0.078888882190143686,8.9322237083333338,0.7436709583333333,-2.9992004583333332
1403715528032143104,-0.043982297150257102,0.030019663134302467,0.055152404363020817,10.411393416666668,0.36774937499999999,-3.3506054166666663
1403715528037143040,-0.00069813170079773186,0.021642082724729686,0.11379546723003027,8.6543686249999983,0.4494714583333333,-3.0400614999999998
1403715528042142976,-0.019547687622336492,0.018849555921538759,0.067718774977379978,9.9128887083333321,-0.21247741666666667,-3.8899711666666663
1403715528047142912,0.01117010721276371,0.062831853071795868,0.078888882190143686,8.9567403333333324,-0.38409379166666668,-2.7213453750000003
1403715528052143104,0.021642082724729686,0.028623399732707,0.055152404363020817,9.2509398333333337,0.122583125,-2.9011339583333333
1403715528057143040,-0.0048869219055841231,0.049567350756638949,0.046774823953448029,8.9322237083333338,-0.59657120833333332,-2.9746838333333332
1403715528062142976,0.023736477827122883,-0.0090757121103705145,0.074700091985357306,8.9649125416666671,0.5475379583333333,-3.2198500833333328
1403715528067142912,-0.020245819323134219,0.043982297150257102,0.069813170079773182,9.4389006250000005,0.36774937499999999,-3.4977051666666665
1403715528072143104,0.0090757121103705145,0.0076794487087750501,0.13055062804917586,8.0496252083333317,0.61291562499999996,-2.2800461250000001
1403715528077143040,-0.022340214425527419,-0.0055850536063818549,0.084473935796525554,10.166227166666665,0.14709974999999997,-3.6938381666666662
1403715528082142976,-0.0041887902047863905,0.030019663134302467,0.1075122819228507,9.2836286666666652,0.16344416666666667,-3.2116778749999999
1403715528087142912,-0.0027925268031909274,0.016755160819145562,0.089360857702109678,9.4797616666666666,0.89077070833333327,-3.2361944999999999
1403715528092143104,-0.014660765716752367,0.067718774977379978,0.085870199198121014,9.2182509999999986,-0.26151066666666667,-2.8847895416666667
1403715528097143040,0.018151424220741029,0.0027925268031909274,0.097040306410884708,8.5317854999999998,0.122583125,-2.8357562916666668
1403715528102142976,-0.0097738438111682462,0.019547687622336492,0.05305800926062762,10.231604833333332,-0.15527195833333335,-3.5385662083333331
1403715528107142912,0.021642082724729686,0.036302848441482058,0.07819075048934597,8.3765135416666663,0.30237170833333332,-2.5170401666666664
1403715528112143104,0.00069813170079773186,-0.01117010721276371,0.02722713633111154,9.8556832499999985,0.196133,-3.6529771249999996
1403715528117143040,-0.0041887902047863905,0.0097738438111682462,0.055152404363020817,8.7524351249999999,0.46581587499999999,-3.1217835833333334
1403715528122142976,-0.013264502315156905,-0.0041887902047863905,0.045378560551852569,9.3980395833333326,0.6292600416666666,-3.4650163333333333
1403715528127142912,-0.020943951023931952,0.037000980142279788,0.060039326268604934,9.6105169999999998,-0.66194887499999999,-3.0972669583333334
1403715528132143104,-0.0027925268031909274,-0.012566370614359173,0.074700091985357306,9.1038400833333331,0.36774937499999999,-3.0155448749999998
1403715528137143040,-0.038397243543875248,0.016057029118347832,0.057246799465414,9.6840668749999992,0.42495483333333334,-3.7755602499999998
1403715528142142976,-0.0027925268031909274,0.0090757121103705145,0.095644043009289262,8.2866192499999993,0.71915433333333334,-2.803067458333333
1403715528147142912,-0.0097738438111682462,-0.0020943951023931952,0.08307767239493008,9.831166624999998,-0.040861041666666667,-3.3587776250000001
1403715528152143104,0.0062831853071795866,0.039095375244672985,0.084473935796525554,9.2918008749999998,-0.62108783333333339,-3.2770555416666665
