#timestamp [ns],w_RS_S_x [rad s^-1],w_RS_S_y [rad s^-1],w_RS_S_z [rad s^-1],a_RS_S_x [m s^-2],a_RS_S_y [m s^-2],a_RS_S_z [m s^-2]
1413393885975760384,0.050963614158234416,0.041887902047863905,0.068416906678177722,9.4389006250000005,-0.40043820833333332,-2.7295175833333332
1413393885980760576,0.05375614096142535,0.036302848441482058,0.070511301780570912,9.3980395833333326,0.032688833333333334,-3.1953334583333328
1413393885985760512,0.038397243543875248,0.042586033748661642,0.046774823953448029,9.5614837499999989,0.25333845833333329,-3.0155448749999998
1413393885990760448,0.028623399732707,0.047472955654245766,0.071209433481368656,9.2836286666666652,0.26968287499999999,-3.0890947499999997
1413393885995760384,0.0027925268031909274,0.065624379874986788,0.062133721370998138,9.6105169999999998,0.49850470833333332,-3.0400614999999998
1413393886000760576,-0.025132741228718346,0.038397243543875248,0.08377580409572781,9.1610455416666667,0.76818758333333337,-3.2280222916666665
1413393886005760512,-0.052359877559829883,0.048171087355043489,0.089360857702109678,9.2836286666666652,0.3350605416666666,-3.0809225416666663
1413393886010760448,-0.055850536063818547,0.038397243543875248,0.080983277292536876,9.0548068333333322,-0.35140495833333335,-2.7867230416666664
1413393886015760384,-0.040491638646268438,0.0090757121103705145,0.074700091985357306,9.2591120416666666,-0.57205458333333326,-2.7540342083333331
1413393886020760576,-0.013264502315156905,0.0076794487087750501,0.086568330898918744,9.3571785416666664,-0.6701210833333332,-2.7376897916666665
1413393886025760512,0.023038346126325153,0.010471975511965976,0.07819075048934597,9.5206227083333328,-0.61291562499999996,-2.9093061666666666
1413393886030760448,0.043982297150257102,0.032114058236695664,0.08307767239493008,9.5860003749999994,-0.37592158333333331,-2.9419949999999999
1413393886035760384,0.040491638646268438,0.028623399732707,0.07819075048934597,9.2509398333333337,0.18796079166666665,-2.8112396666666668
1413393886040760576,0.021642082724729686,0.02652900463031381,0.071907565182166372,9.2591120416666666,0.41678262500000002,-3.0237170833333331
1413393886045760512,-0.0055850536063818549,0.046774823953448029,0.069115038378975438,9.3735229583333322,0.36774937499999999,-3.0400614999999998
1413393886050760448,-0.023736477827122883,0.034208453339088861,0.067718774977379978,9.1447011249999992,0.057205458333333334,-2.9828560416666661
1413393886055760384,-0.034906585039886591,0.018849555921538759,0.069813170079773182,9.0711512499999998,0.10623870833333333,-2.7376897916666665
1413393886060760576,-0.034906585039886591,0.013962634015954637,0.08237954069413235,9.1201845000000006,-0.25333845833333329,-2.9093061666666666
1413393886065760512,-0.021642082724729686,0.0090757121103705145,0.080285145591739146,9.242767624999999,-0.40043820833333332,-2.9992004583333332
1413393886070760448,-0.008377580409572781,0.0069813170079773184,0.087266462599716474,9.5369671250000003,-0.392266,-2.9583394166666666
1413393886075760384,0.0076794487087750501,0.022340214425527419,0.08307767239493008,9.4062117916666654,-0.3105439166666667,-2.9746838333333332
1413393886080760576,0.017453292519943295,0.022340214425527419,0.072605696882964116,9.3490063333333335,-0.30237170833333332,-3.0155448749999998
1413393886085760512,0.025132741228718346,0.02722713633111154,0.065624379874986788,9.5206227083333328,-0.17978858333333333,-2.9746838333333332
1413393886090760448,0.02652900463031381,0.022340214425527419,0.080983277292536876,9.2918008749999998,0.17161637500000002,-2.9338227916666666
1413393886095760384,0.0097738438111682462,0.017453292519943295,0.085172067497323284,9.2345954166666662,0.35957716666666667,-2.8766173333333334
1413393886100760576,-0.013264502315156905,0.020245819323134219,0.095644043009289262,8.9894291666666657,0.38409379166666668,-2.8684451249999996
1413393886105760512,-0.033510321638291124,0.008377580409572781,0.092153384505300612,9.6350336250000002,0.089894291666666667,-3.1299557916666663
1413393886110760448,-0.045378560551852569,0.0090757121103705145,0.08237954069413235,9.5124504999999999,-0.20430520833333332,-3.0645781249999997
1413393886115760384,-0.02722713633111154,0.016755160819145562,0.073303828583761846,9.3980395833333326,-0.66194887499999999,-2.8766173333333334
1413393886120760576,0.0013962634015954637,0.024434609527920613,0.063529984772593598,9.471589458333332,-0.56388237500000005,-3.0400614999999998
1413393886125760512,0.02652900463031381,0.02652900463031381,0.073303828583761846,9.3163174999999985,-0.089894291666666667,-2.9419949999999999
1413393886130760448,0.041189770347066175,0.021642082724729686,0.087964594300514204,9.1610455416666667,-0.089894291666666667,-2.7867230416666664
1413393886135760384,0.032812189937493394,0.012566370614359173,0.076794487087750496,9.5124504999999999,0.21247741666666667,-3.0972669583333334
1413393886140760576,0.0027925268031909274,0.030019663134302467,0.07958701389094143,9.2918008749999998,0.49850470833333332,-2.9746838333333332
1413393886145760512,-0.020943951023931952,0.013264502315156905,0.080983277292536876,9.5696559583333336,0.31871612500000002,-3.2443667083333327
1413393886150760448,-0.033510321638291124,0.025132741228718346,0.071907565182166372,9.4552450416666662,-0.20430520833333332,-3.0645781249999997
1413393886155760384,-0.023038346126325153,0.035604716740684328,0.074700091985357306,9.4143839999999983,-0.20430520833333332,-3.0972669583333334
1413393886160760576,-0.013264502315156905,0.041887902047863905,0.07958701389094143,9.2264232083333333,-0.032688833333333334,-2.8847895416666667
1413393886165760512,-0.0034906585039886592,0.027925268031909273,0.07609635538695278,9.2264232083333333,-0.196133,-2.827584083333333
1413393886170760448,0.0027925268031909274,0.016755160819145562,0.071209433481368656,9.2509398333333337,-0.40861041666666664,-2.9910282499999998
1413393886175760384,0.012566370614359173,0.023038346126325153,0.07819075048934597,9.4470728333333334,0.0081722083333333334,-3.342433208333333
1413393886180760576,0.008377580409572781,0.041887902047863905,0.085870199198121014,9.1528733333333321,0.032688833333333334,-2.852100708333333
1413393886185760512,0.00069813170079773186,0.019547687622336492,0.088662726001311934,9.4470728333333334,-0.11441091666666667,-2.9583394166666666
1413393886190760448,0.0055850536063818549,0.035604716740684328,0.08237954069413235,9.5042782916666653,-0.21247741666666667,-2.9093061666666666
1413393886195760384,0.0097738438111682462,0.043982297150257102,0.084473935796525554,9.2918008749999998,0.16344416666666667,-2.8929617499999996
1413393886200760576,-0.0027925268031909274,0.034906585039886591,0.08237954069413235,9.1692177499999996,0.22064962499999999,-2.8929617499999996
1413393886205760512,-0.018151424220741029,0.017453292519943295,0.067718774977379978,9.3980395833333326,-0.040861041666666667,-2.8766173333333334
1413393886210760448,-0.020943951023931952,0.017453292519943295,0.065624379874986788,9.2836286666666652,-0.17978858333333333,-2.9992004583333332
1413393886215760384,-0.013962634015954637,0.025132741228718346,0.071209433481368656,9.3816951666666668,-0.22882183333333334,-3.0564059166666664
1413393886220760576,-0.0153588974175501,0.032114058236695664,0.07749261878854824,9.1528733333333321,-0.22064962499999999,-2.8194118749999997
1413393886225760512,0.0,0.022340214425527419,0.087266462599716474,9.3816951666666668,-0.26968287499999999,-2.9746838333333332
1413393886230760448,0.016057029118347832,0.024434609527920613,0.085172067497323284,9.2509398333333337,-0.22064962499999999,-2.8602729166666667
1413393886235760384,0.02722713633111154,0.023736477827122883,0.085870199198121014,9.3408341249999989,0.057205458333333334,-2.9093061666666666
1413393886240760576,0.018849555921538759,0.02583087292951608,0.080983277292536876,9.2019065833333329,0.24516625,-3.0073726666666665
1413393886245760512,0.0020943951023931952,0.018151424220741029,0.085172067497323284,9.4797616666666666,0.20430520833333332,-3.0318892916666664
1413393886250760448,-0.014660765716752367,0.02652900463031381,0.08168140899333462,9.1201845000000006,0.040861041666666667,-3.0155448749999998
1413393886255760384,-0.018151424220741029,0.014660765716752367,0.096342174710086978,9.4389006250000005,0.18796079166666665,-2.9501672083333332
1413393886260760576,-0.023038346126325153,0.02652900463031381,0.096342174710086978,9.1610455416666667,0.016344416666666667,-2.9011339583333333
1413393886265760512,-0.014660765716752367,0.0048869219055841231,0.097040306410884708,9.2918008749999998,-0.40043820833333332,-2.7703786249999998
1413393886270760448,-0.00069813170079773186,0.0097738438111682462,0.074001960284559576,9.4389006250000005,-0.42495483333333334,-2.9501672083333332
1413393886275760384,0.011868238913561441,0.010471975511965976,0.064228116473391328,9.5124504999999999,-0.3105439166666667,-3.0564059166666664
1413393886280760576,0.013962634015954637,0.021642082724729686,0.052359877559829883,9.422556208333333,-0.11441091666666667,-3.0482337083333335
1413393886285760512,0.018849555921538759,0.0055850536063818549,0.060039326268604934,9.3408341249999989,-0.0081722083333333334,-2.9828560416666661
1413393886290760448,0.0076794487087750501,0.029321531433504733,0.060039326268604934,9.3980395833333326,0.22064962499999999,-3.0809225416666663
1413393886295760384,-0.011868238913561441,0.0153588974175501,0.087266462599716474,9.3408341249999989,0.53119354166666666,-2.9992004583333332
1413393886300760576,-0.02583087292951608,0.033510321638291124,0.094247779607693802,9.2182509999999986,0.11441091666666667,-2.9011339583333333
1413393886305760512,-0.02652900463031381,0.019547687622336492,0.090757121103705138,9.1447011249999992,-0.25333845833333329,-2.9093061666666666
1413393886310760448,-0.0153588974175501,0.02652900463031381,0.086568330898918744,9.3898673749999997,-0.42495483333333334,-3.138128
1413393886315760384,-0.0013962634015954637,0.021642082724729686,0.092153384505300612,9.2672842499999994,-0.28602729166666663,-3.0890947499999997
1413393886320760576,0.013264502315156905,0.029321531433504733,0.080983277292536876,9.3571785416666664,-0.40861041666666664,-2.9174783749999995
1413393886325760512,0.029321531433504733,0.020943951023931952,0.088662726001311934,9.2591120416666666,-0.26968287499999999,-2.9828560416666661
1413393886330760448,0.030019663134302467,0.031415926535897934,0.085870199198121014,9.3244897083333331,0.17978858333333333,-2.9828560416666661
1413393886335760384,0.016057029118347832,0.024434609527920613,0.10332349171806432,9.242767624999999,0.44129924999999998,-2.9665116249999999
1413393886340760576,-0.013962634015954637,0.032114058236695664,0.086568330898918744,9.2182509999999986,0.04903325,-3.0972669583333334
1413393886345760512,-0.028623399732707,0.014660765716752367,0.071907565182166372,9.4389006250000005,-0.17978858333333333,-3.1708168333333329
1413393886350760448,-0.028623399732707,0.028623399732707,0.062831853071795868,9.5451393333333332,-0.21247741666666667,-3.2035056666666666
1413393886355760384,-0.016057029118347832,0.02583087292951608,0.063529984772593598,9.2836286666666652,-0.37592158333333331,-2.827584083333333
1413393886360760576,-0.0013962634015954637,0.020943951023931952,0.062133721370998138,9.3490063333333335,-0.42495483333333334,-2.9746838333333332
1413393886365760512,0.020245819323134219,0.027925268031909273,0.07749261878854824,9.4307284166666658,-0.17161637500000002,-2.8684451249999996
1413393886370760448,0.020245819323134219,0.038397243543875248,0.086568330898918744,9.2754564583333323,0.27785508333333331,-3.0155448749999998
1413393886375760384,0.008377580409572781,0.033510321638291124,0.087964594300514204,9.1365289166666663,0.37592158333333331,-2.803067458333333
1413393886380760576,-0.0055850536063818549,0.024434609527920613,0.092851516206098328,9.4470728333333334,0.032688833333333334,-2.9174783749999995
1413393886385760512,-0.01117010721276371,0.02722713633111154,0.089360857702109678,9.4062117916666654,-0.040861041666666667,-2.9338227916666666
1413393886390760448,-0.010471975511965976,0.038397243543875248,0.088662726001311934,9.4307284166666658,-0.16344416666666667,-2.9583394166666666
1413393886395760384,-0.0090757121103705145,0.027925268031909273,0.085870199198121014,9.0874956666666655,-0.18796079166666665,-2.8357562916666668
1413393886400760576,0.0069813170079773184,0.020943951023931952,0.085172067497323284,9.4961060833333324,-0.392266,-2.9828560416666661
1413393886405760512,0.016057029118347832,0.023736477827122883,0.078888882190143686,9.2591120416666666,-0.0081722083333333334,-2.9011339583333333
1413393886410760448,0.0076794487087750501,0.020943951023931952,0.075398223686155036,9.3081452916666674,0.20430520833333332,-2.9992004583333332
1413393886415760384,-0.0090757121103705145,0.0090757121103705145,0.076794487087750496,9.3735229583333322,0.04903325,-2.9256505833333333
1413393886420760576,-0.012566370614359173,0.010471975511965976,0.069115038378975438,9.5042782916666653,-0.081722083333333334,-3.1544724166666662
1413393886425760512,-0.011868238913561441,0.017453292519943295,0.060039326268604934,9.2918008749999998,-0.28602729166666663,-2.8439284999999996
1413393886430760448,-0.0062831853071795866,0.020943951023931952,0.059341194567807204,9.3653507499999993,-0.17978858333333333,-3.1217835833333334
1413393886435760384,0.008377580409572781,0.018849555921538759,0.07609635538695278,9.3571785416666664,-0.27785508333333331,-2.8112396666666668
1413393886440760576,0.013264502315156905,0.016057029118347832,0.08377580409572781,9.4389006250000005,0.016344416666666667,-2.9910282499999998
1413393886445760512,0.0062831853071795866,0.023038346126325153,0.087964594300514204,9.2019065833333329,0.196133,-2.7785508333333331
1413393886450760448,-0.0041887902047863905,0.016057029118347832,0.089360857702109678,9.3653507499999993,0.10623870833333333,-3.0400614999999998
1413393886455760384,-0.013264502315156905,0.0153588974175501,0.092851516206098328,9.3980395833333326,-0.057205458333333334,-3.1217835833333334
1413393886460760576,-0.0153588974175501,0.021642082724729686,0.088662726001311934,9.4470728333333334,-0.10623870833333333,-3.0400614999999998
1413393886465760512,-0.01117010721276371,0.02652900463031381,0.084473935796525554,9.1692177499999996,-0.35140495833333335,-2.9011339583333333
1413393886470760448,0.0076794487087750501,0.027925268031909273,0.088662726001311934,9.3653507499999993,-0.40861041666666664,-2.8766173333333334
1413393886475760384,0.018849555921538759,0.018151424220741029,0.092153384505300612,9.2264232083333333,-0.23699404166666665,-2.8929617499999996
1413393886480760576,0.021642082724729686,0.0153588974175501,0.08377580409572781,9.4470728333333334,0.057205458333333334,-3.0318892916666664
1413393886485760512,0.01117010721276371,0.023736477827122883,0.074001960284559576,9.2999730833333327,0.20430520833333332,-2.9093061666666666
1413393886490760448,-0.0013962634015954637,0.0153588974175501,0.074001960284559576,9.3898673749999997,0.29419949999999995,-3.1054391666666663
1413393886495760384,-0.016755160819145562,0.016057029118347832,0.07749261878854824,9.3653507499999993,0.10623870833333333,-3.1054391666666663
1413393886500760576,-0.024434609527920613,0.021642082724729686,0.072605696882964116,9.5451393333333332,-0.196133,-3.1217835833333334
1413393886505760512,-0.020245819323134219,0.042586033748661642,0.07609635538695278,9.3980395833333326,-0.196133,-2.827584083333333
1413393886510760448,-0.0069813170079773184,0.029321531433504733,0.08237954069413235,9.2999730833333327,-0.24516625,-2.9419949999999999
1413393886515760384,0.01117010721276371,0.037000980142279788,0.087266462599716474,9.3571785416666664,-0.23699404166666665,-2.9256505833333333
1413393886520760576,0.018151424220741029,0.032114058236695664,0.088662726001311934,9.193734375,-0.073549874999999987,-3.0564059166666664
1413393886525760512,0.013264502315156905,0.032812189937493394,0.08377580409572781,9.3735229583333322,0.13075533333333333,-2.9093061666666666
1413393886530760448,-0.00069813170079773186,0.019547687622336492,0.076794487087750496,9.3816951666666668,0.15527195833333335,-3.1054391666666663
1413393886535760384,-0.0048869219055841231,0.037699111843077518,0.07609635538695278,9.3163174999999985,-0.016344416666666667,-2.8847895416666667
1413393886540760576,-0.013264502315156905,0.031415926535897934,0.075398223686155036,9.1038400833333331,-0.040861041666666667,-3.1054391666666663
1413393886545760512,-0.010471975511965976,0.043982297150257102,0.08237954069413235,9.4389006250000005,-0.098066500000000001,-2.9093061666666666
1413393886550760448,-0.01117010721276371,0.023736477827122883,0.08237954069413235,9.1447011249999992,-0.20430520833333332,-2.9338227916666666
1413393886555760384,-0.0027925268031909274,0.033510321638291124,0.08237954069413235,9.2264232083333333,-0.29419949999999995,-2.5742456250000001
1413393886560760576,0.0020943951023931952,0.0027925268031909274,0.078888882190143686,9.0874956666666655,-0.11441091666666667,-2.9338227916666666
1413393886565760512,0.008377580409572781,0.024434609527920613,0.074001960284559576,9.594172583333334,-0.016344416666666667,-2.9256505833333333
1413393886570760448,-0.0048869219055841231,0.0153588974175501,0.072605696882964116,9.3081452916666674,-0.073549874999999987,-3.0073726666666665
1413393886575760384,0.0027925268031909274,0.025132741228718346,0.065624379874986788,9.4062117916666654,-0.20430520833333332,-2.8194118749999997
1413393886580760576,-0.0027925268031909274,0.014660765716752367,0.067718774977379978,9.1855621666666654,0.04903325,-2.9746838333333332
1413393886585760512,-0.0013962634015954637,0.041887902047863905,0.088662726001311934,9.6105169999999998,0.17161637500000002,-3.1136113750000001
1413393886590760448,-0.0090757121103705145,0.034906585039886591,0.085870199198121014,9.0629790416666669,-0.122583125,-2.7458620000000002
1413393886595760384,-0.0034906585039886592,0.013264502315156905,0.092851516206098328,9.2999730833333327,-0.26151066666666667,-2.8439284999999996
1413393886600760576,0.00069813170079773186,0.0097738438111682462,0.08307767239493008,9.2345954166666662,-0.21247741666666667,-3.0237170833333331
1413393886605760512,0.0048869219055841231,0.018849555921538759,0.096342174710086978,9.5778281666666665,0.0,-3.1217835833333334
1413393886610760448,-0.0034906585039886592,0.0307177948351002,0.08237954069413235,9.3163174999999985,-0.18796079166666665,-2.9665116249999999
1413393886615760384,0.0048869219055841231,0.013264502315156905,0.078888882190143686,9.3816951666666668,-0.22064962499999999,-2.9011339583333333
1413393886620760576,0.008377580409572781,0.020943951023931952,0.07749261878854824,9.2100787916666658,-0.0081722083333333334,-3.0972669583333334
1413393886625760512,0.0069813170079773184,0.031415926535897934,0.092851516206098328,9.3898673749999997,0.15527195833333335,-3.1299557916666663
1413393886630760448,-0.010471975511965976,0.0307177948351002,0.08168140899333462,9.1201845000000006,0.04903325,-2.9501672083333332
1413393886635760384,-0.008377580409572781,0.0069813170079773184,0.085172067497323284,9.1773899583333325,-0.073549874999999987,-2.9093061666666666
1413393886640760576,-0.0055850536063818549,0.0153588974175501,0.08237954069413235,9.1692177499999996,-0.16344416666666667,-3.0318892916666664
1413393886645760512,-0.0048869219055841231,0.013962634015954637,0.08237954069413235,9.471589458333332,0.0,-3.162644625
1413393886650760448,-0.0153588974175501,0.027925268031909273,0.067020643276582248,9.4634172499999991,-0.14709974999999997,-2.9665116249999999
1413393886655760384,0.0048869219055841231,0.021642082724729686,0.078888882190143686,9.3490063333333335,-0.17161637500000002,-2.8929617499999996
1413393886660760576,0.008377580409572781,0.034208453339088861,0.071907565182166372,9.3163174999999985,-0.18796079166666665,-3.0318892916666664
1413393886665760512,0.0062831853071795866,0.02722713633111154,0.080285145591739146,9.4062117916666654,0.17161637500000002,-3.1217835833333334
1413393886670760448,-0.0034906585039886592,0.029321531433504733,0.07609635538695278,9.242767624999999,0.0,-2.9583394166666666
1413393886675760384,-0.0013962634015954637,0.017453292519943295,0.08237954069413235,9.4634172499999991,-0.18796079166666665,-3.0073726666666665
1413393886680760576,-0.0041887902047863905,0.023736477827122883,0.08168140899333462,9.242767624999999,-0.17978858333333333,-3.0155448749999998
1413393886685760512,-0.0062831853071795866,0.020245819323134219,0.08168140899333462,9.5696559583333336,-0.016344416666666667,-3.0400614999999998
1413393886690760448,-0.0097738438111682462,0.030019663134302467,0.07958701389094143,9.3980395833333326,-0.13892754166666665,-2.9093061666666666
1413393886695760384,0.0062831853071795866,0.032812189937493394,0.080983277292536876,9.422556208333333,-0.17978858333333333,-2.9501672083333332
1413393886700760576,0.008377580409572781,0.032114058236695664,0.080983277292536876,9.2754564583333323,-0.11441091666666667,-2.9828560416666661
1413393886705760512,0.0041887902047863905,0.037000980142279788,0.07819075048934597,9.4552450416666662,0.17161637500000002,-3.0645781249999997
1413393886710760448,-0.0020943951023931952,0.0307177948351002,0.07958701389094143,9.1120122916666659,0.032688833333333334,-2.7131731666666665
1413393886715760384,-0.0013962634015954637,0.014660765716752367,0.08168140899333462,9.5860003749999994,-0.16344416666666667,-3.0482337083333335
1413393886720760576,-0.0020943951023931952,0.02583087292951608,0.08377580409572781,9.2182509999999986,0.057205458333333334,-2.9746838333333332
1413393886725760512,-0.0076794487087750501,0.0307177948351002,0.07609635538695278,9.4307284166666658,-0.0081722083333333334,-2.9828560416666661
1413393886730760448,0.00069813170079773186,0.023736477827122883,0.07958701389094143,9.193734375,-0.14709974999999997,-2.8929617499999996
1413393886735760384,0.0034906585039886592,0.02722713633111154,0.074700091985357306,9.5369671250000003,-0.040861041666666667,-3.0237170833333331
1413393886740760576,0.011868238913561441,0.030019663134302467,0.085870199198121014,9.2264232083333333,0.065377666666666667,-2.9910282499999998
1413393886745760512,0.0013962634015954637,0.031415926535897934,0.074700091985357306,9.3735229583333322,0.065377666666666667,-2.9583394166666666
1413393886750760448,-0.0020943951023931952,0.013264502315156905,0.08377580409572781,9.1120122916666659,0.089894291666666667,-2.7458620000000002
1413393886755760384,-0.0020943951023931952,0.012566370614359173,0.080983277292536876,9.4389006250000005,-0.081722083333333334,-2.9093061666666666
1413393886760760576,-0.0041887902047863905,0.016057029118347832,0.090058989402907408,9.2836286666666652,-0.081722083333333334,-3.138128
1413393886765760512,-0.01117010721276371,0.024434609527920613,0.07958701389094143,9.4797616666666666,-0.17161637500000002,-3.0564059166666664
1413393886770760448,-0.0034906585039886592,0.011868238913561441,0.08168140899333462,9.3081452916666674,-0.28602729166666663,-3.0482337083333335
1413393886775760384,0.0041887902047863905,0.02583087292951608,0.07819075048934597,9.4552450416666662,-0.10623870833333333,-2.9665116249999999
1413393886780760576,0.014660765716752367,0.014660765716752367,0.087964594300514204,9.2836286666666652,0.032688833333333334,-3.0155448749999998
1413393886785760512,0.0041887902047863905,0.028623399732707,0.073303828583761846,9.4797616666666666,0.065377666666666667,-3.0073726666666665
1413393886790760448,-0.0034906585039886592,0.0076794487087750501,0.07958701389094143,9.1283567083333317,0.13075533333333333,-2.9501672083333332
1413393886795760384,-0.008377580409572781,0.017453292519943295,0.07819075048934597,9.4470728333333334,-0.22882183333333334,-2.9992004583333332
1413393886800760576,-0.0076794487087750501,0.020245819323134219,0.088662726001311934,9.2918008749999998,-0.13892754166666665,-3.1953334583333328
1413393886805760512,-0.0090757121103705145,0.027925268031909273,0.08168140899333462,9.5042782916666653,-0.17161637500000002,-3.0155448749999998
1413393886810760448,-0.0034906585039886592,0.013962634015954637,0.08377580409572781,9.2100787916666658,-0.10623870833333333,-2.9910282499999998
1413393886815760384,0.00069813170079773186,0.034906585039886591,0.074700091985357306,9.4879338749999995,-0.20430520833333332,-2.9992004583333332
1413393886820760576,0.0048869219055841231,0.027925268031909273,0.080285145591739146,9.1283567083333317,-0.122583125,-3.0318892916666664
1413393886825760512,0.0076794487087750501,0.034906585039886591,0.07819075048934597,9.5042782916666653,-0.032688833333333334,-3.0237170833333331
1413393886830760448,0.0027925268031909274,0.022340214425527419,0.08307767239493008,9.1447011249999992,-0.024516625,-3.0073726666666665
1413393886835760384,-0.00069813170079773186,0.02583087292951608,0.08237954069413235,9.4143839999999983,-0.024516625,-2.9419949999999999
1413393886840760576,-0.010471975511965976,0.02583087292951608,0.085172067497323284,9.1120122916666659,-0.14709974999999997,-3.0564059166666664
1413393886845760512,-0.008377580409572781,0.0307177948351002,0.088662726001311934,9.332661916666666,-0.11441091666666667,-3.0400614999999998
1413393886850760448,-0.0062831853071795866,0.027925268031909273,0.085172067497323284,9.3490063333333335,-0.17978858333333333,-2.9910282499999998
1413393886855760384,0.0013962634015954637,0.027925268031909273,0.085870199198121014,9.242767624999999,-0.073549874999999987,-2.9256505833333333
1413393886860760576,0.0048869219055841231,0.031415926535897934,0.076794487087750496,9.1610455416666667,-0.17978858333333333,-3.0155448749999998
1413393886865760512,0.0090757121103705145,0.023038346126325153,0.07609635538695278,9.2672842499999994,-0.016344416666666667,-2.9338227916666666
1413393886870760448,0.0069813170079773184,0.019547687622336492,0.070511301780570912,9.2509398333333337,-0.081722083333333334,-3.0645781249999997
1413393886875760384,0.0027925268031909274,0.017453292519943295,0.074700091985357306,9.1447011249999992,0.081722083333333334,-2.9501672083333332
1413393886880760576,-0.0076794487087750501,0.025132741228718346,0.07819075048934597,9.3816951666666668,-0.032688833333333334,-3.0400614999999998
1413393886885760512,-0.0097738438111682462,0.021642082724729686,0.078888882190143686,9.3244897083333331,-0.11441091666666667,-2.9665116249999999
1413393886890760448,-0.008377580409572781,0.024434609527920613,0.075398223686155036,9.6840668749999992,-0.14709974999999997,-3.2116778749999999
1413393886895760384,-0.0048869219055841231,0.029321531433504733,0.080983277292536876,9.2100787916666658,0.081722083333333334,-2.9093061666666666
1413393886900760576,-0.0020943951023931952,0.02722713633111154,0.073303828583761846,9.4552450416666662,-0.196133,-3.0073726666666665
1413393886905760512,0.0034906585039886592,0.028623399732707,0.074700091985357306,9.3408341249999989,-0.17161637500000002,-2.8602729166666667
1413393886910760448,0.016057029118347832,0.022340214425527419,0.080983277292536876,9.4634172499999991,-0.13892754166666665,-3.0809225416666663
1413393886915760384,0.0090757121103705145,0.024434609527920613,0.07749261878854824,9.0548068333333322,0.057205458333333334,-2.827584083333333
1413393886920760576,0.0,0.021642082724729686,0.084473935796525554,9.4634172499999991,0.04903325,-3.1136113750000001
1413393886925760512,-0.0069813170079773184,0.024434609527920613,0.08237954069413235,9.2264232083333333,-0.089894291666666667,-2.8847895416666667
1413393886930760448,-0.0048869219055841231,0.018151424220741029,0.092153384505300612,9.5042782916666653,-0.016344416666666667,-2.9746838333333332
1413393886935760384,-0.0069813170079773184,0.02652900463031381,0.087964594300514204,9.0629790416666669,0.057205458333333334,-2.9419949999999999
1413393886940760576,-0.0069813170079773184,0.020943951023931952,0.08237954069413235,9.3980395833333326,-0.29419949999999995,-3.0073726666666665
1413393886945760512,0.0027925268031909274,0.016755160819145562,0.08237954069413235,9.0629790416666669,-0.26151066666666667,-2.9583394166666666
1413393886950760448,0.010471975511965976,0.017453292519943295,0.075398223686155036,9.4143839999999983,-0.10623870833333333,-2.9828560416666661
1413393886955760384,0.0062831853071795866,0.018849555921538759,0.07819075048934597,9.1692177499999996,-0.0081722083333333334,-2.9011339583333333
1413393886960760576,0.0013962634015954637,0.013962634015954637,0.07609635538695278,9.594172583333334,-0.16344416666666667,-3.1054391666666663
1413393886965760512,0.0,0.020245819323134219,0.075398223686155036,9.0711512499999998,-0.089894291666666667,-2.8602729166666667
1413393886970760448,-0.0013962634015954637,0.011868238913561441,0.091455252804502868,9.5042782916666653,0.13075533333333333,-3.2933999583333331
1413393886975760384,-0.013264502315156905,0.039095375244672985,0.085172067497323284,9.3571785416666664,0.073549874999999987,-2.9419949999999999
1413393886980760576,-0.013264502315156905,0.022340214425527419,0.086568330898918744,9.242767624999999,-0.18796079166666665,-2.9093061666666666
1413393886985760512,-0.0048869219055841231,0.02652900463031381,0.071907565182166372,9.3735229583333322,-0.40043820833333332,-2.9338227916666666
1413393886990760448,0.012566370614359173,0.023736477827122883,0.07958701389094143,9.2264232083333333,-0.11441091666666667,-3.0564059166666664
1413393886995760384,0.013264502315156905,0.024434609527920613,0.084473935796525554,9.4307284166666658,0.0081722083333333334,-2.9910282499999998
1413393887000760576,0.0020943951023931952,0.017453292519943295,0.075398223686155036,9.3653507499999993,-0.024516625,-2.9828560416666661
1413393887005760512,0.0027925268031909274,0.023736477827122883,0.07819075048934597,9.3081452916666674,-0.10623870833333333,-3.0400614999999998
1413393887010760448,0.00069813170079773186,0.020245819323134219,0.089360857702109678,9.193734375,0.24516625,-3.0237170833333331
1413393887015760384,-0.013264502315156905,0.028623399732707,0.091455252804502868,9.6513780416666659,0.11441091666666667,-3.0073726666666665
1413393887020760576,-0.017453292519943295,0.031415926535897934,0.08377580409572781,9.2672842499999994,-0.122583125,-2.9093061666666666
1413393887025760512,-0.0048869219055841231,0.017453292519943295,0.07609635538695278,9.3898673749999997,-0.40861041666666664,-3.0073726666666665
1413393887030760448,0.010471975511965976,0.031415926535897934,0.071907565182166372,9.1855621666666654,-0.20430520833333332,-2.9501672083333332
1413393887035760384,0.013962634015954637,0.019547687622336492,0.08377580409572781,9.3653507499999993,-0.016344416666666667,-2.9583394166666666
1413393887040760576,0.0062831853071795866,0.028623399732707,0.074001960284559576,9.4389006250000005,-0.16344416666666667,-2.9992004583333332
1413393887045760512,0.0076794487087750501,0.020245819323134219,0.08237954069413235,9.2019065833333329,-0.024516625,-2.9665116249999999
1413393887050760448,0.0020943951023931952,0.02722713633111154,0.08237954069413235,9.1283567083333317,0.25333845833333329,-2.9910282499999998
1413393887055760384,-0.017453292519943295,0.020943951023931952,0.086568330898918744,9.4389006250000005,0.17978858333333333,-3.0155448749999998
1413393887060760576,-0.020943951023931952,0.034208453339088861,0.080285145591739146,9.3571785416666664,-0.15527195833333335,-3.0645781249999997
1413393887065760512,-0.0069813170079773184,0.018849555921538759,0.08237954069413235,9.2264232083333333,-0.30237170833333332,-2.8929617499999996
1413393887070760448,0.0055850536063818549,0.022340214425527419,0.07609635538695278,9.1855621666666654,-0.24516625,-2.9256505833333333
1413393887075760384,0.013962634015954637,0.01117010721276371,0.08168140899333462,9.193734375,-0.14709974999999997,-2.9338227916666666
1413393887080760576,0.008377580409572781,0.021642082724729686,0.07609635538695278,9.5206227083333328,-0.13892754166666665,-3.0482337083333335
1413393887085760512,0.01117010721276371,0.013264502315156905,0.07609635538695278,9.1855621666666654,-0.073549874999999987,-2.9746838333333332
1413393887090760448,0.0055850536063818549,0.021642082724729686,0.080285145591739146,9.2591120416666666,0.15527195833333335,-3.0155448749999998
1413393887095760384,-0.0097738438111682462,0.008377580409572781,0.085172067497323284,9.2182509999999986,0.20430520833333332,-2.9746838333333332
1413393887100760576,-0.02583087292951608,0.023736477827122883,0.078888882190143686,9.5533115416666661,-0.11441091666666667,-3.0155448749999998
1413393887105760512,-0.0153588974175501,0.019547687622336492,0.085172067497323284,9.3735229583333322,-0.38409379166666668,-2.9419949999999999
1413393887110760448,0.0020943951023931952,0.031415926535897934,0.08237954069413235,9.471589458333332,-0.40043820833333332,-3.0073726666666665
1413393887115760384,0.0090757121103705145,0.018849555921538759,0.084473935796525554,9.0956678750000002,-0.22064962499999999,-2.8357562916666668
1413393887120760576,0.014660765716752367,0.021642082724729686,0.07819075048934597,9.6023447916666651,-0.196133,-2.9992004583333332
1413393887125760512,0.016057029118347832,0.017453292519943295,0.075398223686155036,9.193734375,-0.065377666666666667,-2.8766173333333334
1413393887130760448,0.012566370614359173,0.023038346126325153,0.08237954069413235,9.4062117916666654,0.17978858333333333,-3.1299557916666663
1413393887135760384,-0.0055850536063818549,0.0307177948351002,0.08168140899333462,9.2019065833333329,0.26151066666666667,-2.9419949999999999
1413393887140760576,-0.02583087292951608,0.023038346126325153,0.08237954069413235,9.5124504999999999,0.15527195833333335,-2.9910282499999998
1413393887145760512,-0.023038346126325153,0.032812189937493394,0.08168140899333462,9.2999730833333327,-0.21247741666666667,-2.9011339583333333
1413393887150760448,-0.0069813170079773184,0.018849555921538759,0.08307767239493008,9.2672842499999994,-0.32688833333333334,-3.0400614999999998
1413393887155760384,0.0,0.036302848441482058,0.076794487087750496,9.1365289166666663,-0.26151066666666667,-2.9011339583333333
1413393887160760576,0.013264502315156905,0.020245819323134219,0.07819075048934597,9.3735229583333322,-0.29419949999999995,-2.9093061666666666
1413393887165760512,0.017453292519943295,0.030019663134302467,0.068416906678177722,9.3653507499999993,-0.20430520833333332,-3.0237170833333331
1413393887170760448,0.017453292519943295,0.019547687622336492,0.08237954069413235,9.193734375,0.22064962499999999,-3.0972669583333334
1413393887175760384,-0.0048869219055841231,0.038397243543875248,0.07958701389094143,9.2999730833333327,0.40043820833333332,-2.9501672083333332
1413393887180760576,-0.025132741228718346,0.025132741228718346,0.085870199198121014,9.3244897083333331,0.13075533333333333,-3.0237170833333331
1413393887185760512,-0.028623399732707,0.027925268031909273,0.07609635538695278,9.4470728333333334,-0.23699404166666665,-3.1054391666666663
1413393887190760448,-0.016755160819145562,0.012566370614359173,0.08307767239493008,9.2019065833333329,-0.3105439166666667,-2.8929617499999996
1413393887195760384,-0.0013962634015954637,0.036302848441482058,0.074700091985357306,9.5696559583333336,-0.34323275000000003,-3.0237170833333331
1413393887200760576,0.0153588974175501,0.023038346126325153,0.08307767239493008,9.0874956666666655,-0.40043820833333332,-2.9011339583333333
1413393887205760512,0.023736477827122883,0.018849555921538759,0.072605696882964116,9.6350336250000002,-0.29419949999999995,-2.9338227916666666
1413393887210760448,0.024434609527920613,0.014660765716752367,0.074001960284559576,9.2345954166666662,0.20430520833333332,-2.9011339583333333
1413393887215760384,0.012566370614359173,0.02583087292951608,0.08377580409572781,9.5533115416666661,0.40043820833333332,-3.1217835833333334
1413393887220760576,-0.020245819323134219,0.028623399732707,0.08377580409572781,9.2754564583333323,0.26968287499999999,-3.0155448749999998
1413393887225760512,-0.02652900463031381,0.028623399732707,0.080983277292536876,9.3490063333333335,-0.0081722083333333334,-2.9174783749999995
1413393887230760448,-0.020245819323134219,0.014660765716752367,0.089360857702109678,9.193734375,-0.22064962499999999,-2.7948952499999997
1413393887235760384,-0.0034906585039886592,0.020943951023931952,0.090058989402907408,9.5206227083333328,-0.36774937499999999,-3.0972669583333334
1413393887240760576,0.013264502315156905,0.032812189937493394,0.085172067497323284,9.1365289166666663,-0.36774937499999999,-2.8684451249999996
1413393887245760512,0.020245819323134219,0.023736477827122883,0.074700091985357306,9.3980395833333326,-0.32688833333333334,-2.7703786249999998
1413393887250760448,0.02652900463031381,0.014660765716752367,0.074700091985357306,9.1447011249999992,-0.14709974999999997,-2.8847895416666667
1413393887255760384,0.016057029118347832,0.010471975511965976,0.07819075048934597,9.2672842499999994,0.35140495833333335,-3.1544724166666662
1413393887260760576,-0.0069813170079773184,0.032812189937493394,0.085172067497323284,9.2019065833333329,0.48216029166666663,-2.8929617499999996
1413393887265760512,-0.0307177948351002,0.018849555921538759,0.076794487087750496,9.4634172499999991,0.122583125,-2.9828560416666661
1413393887270760448,-0.030019663134302467,0.020245819323134219,0.078888882190143686,9.2754564583333323,-0.32688833333333334,-2.9256505833333333
1413393887275760384,-0.016755160819145562,0.011868238913561441,0.071209433481368656,9.2509398333333337,-0.34323275000000003,-3.0400614999999998
1413393887280760576,0.0013962634015954637,0.034208453339088861,0.075398223686155036,9.3408341249999989,-0.36774937499999999,-2.8847895416666667
1413393887285760512,0.010471975511965976,0.014660765716752367,0.075398223686155036,9.4552450416666662,-0.36774937499999999,-3.0564059166666664
1413393887290760448,0.023038346126325153,0.025132741228718346,0.071209433481368656,9.5124504999999999,-0.25333845833333329,-2.9256505833333333
1413393887295760384,0.021642082724729686,0.010471975511965976,0.073303828583761846,9.1201845000000006,0.16344416666666667,-2.9910282499999998
1413393887300760576,0.0097738438111682462,0.034906585039886591,0.087964594300514204,9.5860003749999994,0.49850470833333332,-3.0400614999999998
1413393887305760512,-0.022340214425527419,0.023736477827122883,0.090058989402907408,9.2100787916666658,0.28602729166666663,-2.9910282499999998
1413393887310760448,-0.0307177948351002,0.018849555921538759,0.087964594300514204,9.5533115416666661,-0.15527195833333335,-2.9910282499999998
1413393887315760384,-0.021642082724729686,0.02583087292951608,0.085172067497323284,9.1201845000000006,-0.30237170833333332,-2.9665116249999999
1413393887320760576,-0.0090757121103705145,0.022340214425527419,0.093549647906896058,9.643205833333333,-0.3105439166666667,-3.138128
1413393887325760512,0.008377580409572781,0.023736477827122883,0.080285145591739146,9.1120122916666659,-0.43312704166666666,-2.8439284999999996
1413393887330760448,0.02583087292951608,0.017453292519943295,0.07958701389094143,9.5778281666666665,-0.37592158333333331,-2.9992004583333332
1413393887335760384,0.028623399732707,0.036302848441482058,0.068416906678177722,9.1447011249999992,-0.032688833333333334,-2.9011339583333333
1413393887340760576,0.016755160819145562,0.020245819323134219,0.090058989402907408,9.4797616666666666,0.53119354166666666,-3.0155448749999998
1413393887345760512,-0.0153588974175501,0.039095375244672985,0.07958701389094143,9.3898673749999997,0.3105439166666667,-3.0809225416666663
1413393887350760448,-0.031415926535897934,0.02722713633111154,0.073303828583761846,9.242767624999999,0.098066500000000001,-2.9992004583333332
1413393887355760384,-0.02583087292951608,0.031415926535897934,0.08168140899333462,9.0956678750000002,-0.27785508333333331,-3.0482337083333335
1413393887360760576,-0.013962634015954637,0.020943951023931952,0.07958701389094143,9.2999730833333327,-0.22882183333333334,-3.0318892916666664
1413393887365760512,0.0027925268031909274,0.040491638646268438,0.080983277292536876,9.2182509999999986,-0.44129924999999998,-2.8357562916666668
1413393887370760448,0.012566370614359173,0.018849555921538759,0.07819075048934597,9.3244897083333331,-0.43312704166666666,-2.8684451249999996
1413393887375760384,0.0307177948351002,0.027925268031909273,0.073303828583761846,9.2672842499999994,-0.14709974999999997,-2.8766173333333334
1413393887380760576,0.018151424220741029,0.0090757121103705145,0.07609635538695278,9.1283567083333317,0.43312704166666666,-3.0155448749999998
1413393887385760512,-0.00069813170079773186,0.032812189937493394,0.089360857702109678,9.4961060833333324,0.50667691666666659,-2.9910282499999998
1413393887390760448,-0.031415926535897934,0.016057029118347832,0.07958701389094143,9.3490063333333335,0.15527195833333335,-3.0645781249999997
1413393887395760384,-0.0307177948351002,0.020245819323134219,0.08237954069413235,9.3816951666666668,-0.073549874999999987,-3.0073726666666665
1413393887400760576,-0.025132741228718346,0.0062831853071795866,0.07749261878854824,9.3571785416666664,-0.38409379166666668,-2.9501672083333332
1413393887405760512,-0.0048869219055841231,0.021642082724729686,0.084473935796525554,9.6840668749999992,-0.31871612500000002,-3.0727503333333335
1413393887410760448,0.0048869219055841231,0.018849555921538759,0.078888882190143686,9.2182509999999986,-0.46581587499999999,-2.8357562916666668
1413393887415760384,0.02652900463031381,0.0153588974175501,0.073303828583761846,9.5614837499999989,-0.41678262500000002,-2.9828560416666661
1413393887420760576,0.030019663134302467,0.022340214425527419,0.070511301780570912,9.2672842499999994,0.024516625,-2.9828560416666661
1413393887425760512,0.018151424220741029,0.0069813170079773184,0.090757121103705138,9.5287949166666657,0.47398808333333331,-3.1789890416666662
1413393887430760448,-0.0069813170079773184,0.037699111843077518,0.085172067497323284,9.3571785416666664,0.3105439166666667,-2.9992004583333332
1413393887435760384,-0.0307177948351002,0.017453292519943295,0.08307767239493008,9.3081452916666674,0.0,-3.0564059166666664
1413393887440760576,-0.02722713633111154,0.027925268031909273,0.08237954069413235,9.2264232083333333,-0.13892754166666665,-3.0318892916666664
1413393887445760512,-0.012566370614359173,0.013962634015954637,0.090058989402907408,9.2836286666666652,-0.38409379166666668,-3.0727503333333335
1413393887450760448,0.0062831853071795866,0.037000980142279788,0.085870199198121014,9.3816951666666668,-0.50667691666666659,-2.9665116249999999
1413393887455760384,0.020943951023931952,0.0153588974175501,0.08237954069413235,9.1773899583333325,-0.45764366666666667,-2.8439284999999996
1413393887460760576,0.034906585039886591,0.025132741228718346,0.07609635538695278,9.4062117916666654,-0.17978858333333333,-2.9992004583333332
1413393887465760512,0.020943951023931952,0.018151424220741029,0.07958701389094143,9.0302902083333318,0.32688833333333334,-3.0155448749999998
1413393887470760448,-0.0020943951023931952,0.024434609527920613,0.08377580409572781,9.3816951666666668,0.59657120833333332,-2.9910282499999998
1413393887475760384,-0.02722713633111154,0.024434609527920613,0.07958701389094143,9.242767624999999,0.14709974999999997,-2.9910282499999998
1413393887480760576,-0.037000980142279788,0.023736477827122883,0.071209433481368656,9.3163174999999985,-0.11441091666666667,-3.0727503333333335
1413393887485760512,-0.024434609527920613,0.0153588974175501,0.07958701389094143,9.2591120416666666,-0.30237170833333332,-2.9746838333333332
1413393887490760448,-0.0055850536063818549,0.029321531433504733,0.07958701389094143,9.5369671250000003,-0.37592158333333331,-2.9501672083333332
1413393887495760384,0.013264502315156905,0.025132741228718346,0.07749261878854824,9.2836286666666652,-0.51484912499999991,-2.9338227916666666
1413393887500760576,0.0307177948351002,0.02583087292951608,0.073303828583761846,9.4797616666666666,-0.34323275000000003,-2.9665116249999999
1413393887505760512,0.029321531433504733,0.022340214425527419,0.073303828583761846,9.3081452916666674,0.11441091666666667,-3.0155448749999998
1413393887510760448,0.013264502315156905,0.017453292519943295,0.080285145591739146,9.4470728333333334,0.53119354166666666,-3.0237170833333331
1413393887515760384,-0.012566370614359173,0.032114058236695664,0.089360857702109678,9.4307284166666658,0.38409379166666668,-2.9746838333333332
1413393887520760576,-0.034906585039886591,0.02652900463031381,0.07749261878854824,9.4389006250000005,0.13892754166666665,-3.1953334583333328
1413393887525760512,-0.02722713633111154,0.028623399732707,0.086568330898918744,9.3571785416666664,-0.26968287499999999,-2.9093061666666666
1413393887530760448,-0.017453292519943295,0.023038346126325153,0.07819075048934597,9.3490063333333335,-0.35957716666666667,-3.1217835833333334
1413393887535760384,0.0055850536063818549,0.038397243543875248,0.08168140899333462,9.2264232083333333,-0.47398808333333331,-2.8194118749999997
1413393887540760576,0.023736477827122883,0.021642082724729686,0.08168140899333462,9.3571785416666664,-0.42495483333333334,-2.9992004583333332
1413393887545760512,0.035604716740684328,0.029321531433504733,0.076794487087750496,9.3898673749999997,-0.089894291666666667,-2.8439284999999996
1413393887550760448,0.018151424220741029,0.013962634015954637,0.08377580409572781,9.0221180000000007,0.56388237500000005,-3.0564059166666664
1413393887555760384,-0.0097738438111682462,0.035604716740684328,0.092153384505300612,9.5614837499999989,0.58022679166666657,-3.0645781249999997
1413393887560760576,-0.041189770347066175,0.02722713633111154,0.085172067497323284,9.1855621666666654,0.22882183333333334,-3.0809225416666663
1413393887565760512,-0.032812189937493394,0.034208453339088861,0.08307767239493008,9.5287949166666657,-0.43312704166666666,-2.9746838333333332
1413393887570760448,-0.018849555921538759,0.022340214425527419,0.069115038378975438,9.2019065833333329,-0.5475379583333333,-2.8112396666666668
1413393887575760384,0.0069813170079773184,0.028623399732707,0.074700091985357306,9.2672842499999994,-0.57205458333333326,-2.9910282499999998
1413393887580760576,0.021642082724729686,0.020245819323134219,0.069813170079773182,9.2918008749999998,-0.28602729166666663,-3.0645781249999997
1413393887585760512,0.02722713633111154,0.008377580409572781,0.075398223686155036,9.5287949166666657,0.3105439166666667,-3.4078108749999996
1413393887590760448,0.0027925268031909274,0.037699111843077518,0.070511301780570912,9.5778281666666665,0.42495483333333334,-3.0972669583333334
1413393887595760384,-0.027925268031909273,0.028623399732707,0.067020643276582248,9.6186892083333326,0.40861041666666664,-3.138128
1413393887600760576,-0.034906585039886591,0.041189770347066175,0.060039326268604934,10.010955208333332,-0.51484912499999991,-3.3832942499999996
1413393887605760512,-0.0090757121103705145,0.020245819323134219,0.067718774977379978,9.5042782916666653,-0.64560445833333324,-2.8194118749999997
1413393887610760448,0.0153588974175501,0.050963614158234416,0.08377580409572781,9.3490063333333335,-0.28602729166666663,-3.162644625
1413393887615760384,0.032812189937493394,0.057246799465414,0.12426744274199628,8.9403959166666649,0.016344416666666667,-2.827584083333333
1413393887620760576,0.023038346126325153,0.035604716740684328,0.15289084247470325,8.9894291666666657,-0.032688833333333334,-2.9501672083333332
1413393887625760512,0.023038346126325153,0.058643062867009467,0.143116998663535,9.4307284166666658,-0.24516625,-2.9501672083333332
1413393887630760448,0.016057029118347832,0.032114058236695664,0.11868238913561441,8.8750182500000001,-0.057205458333333334,-2.7948952499999997
1413393887635760384,0.00069813170079773186,0.024434609527920613,0.10890854532444616,9.1365289166666663,0.48216029166666663,-3.0564059166666664
1413393887640760576,-0.039793506945470715,0.050963614158234416,0.08168140899333462,9.0711512499999998,0.20430520833333332,-2.6723121249999999
1413393887645760512,-0.05166174585903216,0.033510321638291124,0.05305800926062762,9.1773899583333325,-0.4903325,-2.9583394166666666
1413393887650760448,-0.020245819323134219,0.031415926535897934,0.023736477827122883,9.0221180000000007,-1.0787315,-2.7131731666666665
1413393887655760384,0.0153588974175501,0.01117010721276371,0.032114058236695664,8.6380242083333325,-0.30237170833333332,-2.6477955
1413393887660760576,0.0307177948351002,0.048869219055841226,0.050265482457436693,9.4634172499999991,-0.040861041666666667,-3.0237170833333331
1413393887665760512,0.01117010721276371,0.035604716740684328,0.055152404363020817,8.5154410833333323,0.17978858333333333,-2.6314510833333329
1413393887670760448,0.012566370614359173,-0.00069813170079773186,0.068416906678177722,9.4961060833333324,0.032688833333333334,-3.2116778749999999
1413393887675760384,-0.00069813170079773186,0.032812189937493394,0.069813170079773182,9.3898673749999997,0.45764366666666667,-2.7703786249999998
1413393887680760576,-0.0090757121103705145,0.0041887902047863905,0.1340412865531645,9.1692177499999996,0.5475379583333333,-3.1217835833333334
1413393887685760512,-0.039095375244672985,0.033510321638291124,0.1096066770252439,9.5451393333333332,-0.17161637500000002,-2.8357562916666668
1413393887690760448,-0.019547687622336492,-0.0153588974175501,0.10890854532444616,9.3980395833333326,-0.6292600416666666,-2.9746838333333332
1413393887695760384,0.0,0.0041887902047863905,0.072605696882964116,10.190743791666666,-0.40043820833333332,-3.0645781249999997
1413393887700760576,0.0097738438111682462,-0.0076794487087750501,0.10821041362364843,9.5206227083333328,0.23699404166666665,-3.0890947499999997
1413393887705760512,-0.0076794487087750501,0.042586033748661642,0.067718774977379978,9.9864385833333333,-0.49850470833333332,-3.2933999583333331
1413393887710760448,0.011868238913561441,0.0076794487087750501,0.069115038378975438,8.9240514999999991,-0.3105439166666667,-2.2718739166666664
1413393887715760384,0.02583087292951608,0.0069813170079773184,0.05305800926062762,10.354187958333334,-0.44129924999999998,-3.4323274999999995
1413393887720760576,0.020943951023931952,0.035604716740684328,0.067020643276582248,8.8913626666666659,0.8253930416666666,-2.827584083333333
1413393887725760512,0.0013962634015954637,0.031415926535897934,0.095644043009289262,9.5287949166666657,0.4494714583333333,-3.3015721666666664
1413393887730760448,-0.021642082724729686,0.076794487087750496,0.07819075048934597,8.7034018749999991,-0.040861041666666667,-2.4598347083333332
1413393887735760384,-0.010471975511965976,-0.00069813170079773186,0.095644043009289262,9.0139457916666661,0.016344416666666667,-3.0073726666666665
1413393887740760576,-0.013962634015954637,0.044680428851054839,0.07609635538695278,9.3735229583333322,-0.22882183333333334,-3.2852277500000002
1413393887745760512,-0.0090757121103705145,0.02583087292951608,0.10890854532444616,8.6707130416666658,-0.098066500000000001,-2.9174783749999995
1413393887750760448,-0.014660765716752367,0.059341194567807204,0.085172067497323284,9.0384624166666665,-0.6701210833333332,-2.8929617499999996
1413393887755760384,0.00069813170079773186,0.014660765716752367,0.07958701389094143,8.572646541666666,-0.24516625,-2.6396232916666666
1413393887760760576,0.020245819323134219,-0.0048869219055841231,0.055850536063818547,9.7494445416666657,-0.45764366666666667,-3.3996386666666667
1413393887765760512,0.019547687622336492,0.014660765716752367,0.063529984772593598,9.0956678750000002,0.34323275000000003,-2.9501672083333332
1413393887770760448,0.0055850536063818549,0.020245819323134219,0.076794487087750496,9.8475110416666656,0.065377666666666667,-3.5630828333333331
1413393887775760384,-0.016755160819145562,0.046774823953448029,0.043284165449459372,8.5808187499999988,0.122583125,-2.3454237916666667
1413393887780760576,-0.010471975511965976,-0.021642082724729686,0.07609635538695278,9.4879338749999995,-0.13892754166666665,-2.9992004583333332
1413393887785760512,-0.018151424220741029,0.01117010721276371,0.049567350756638949,10.059988458333333,-0.24516625,-3.2852277500000002
1413393887790760448,-0.0027925268031909274,0.0041887902047863905,0.099134701513277898,9.3163174999999985,0.11441091666666667,-2.8112396666666668
1413393887795760384,-0.013264502315156905,0.046076692252650306,0.090058989402907408,9.9864385833333333,-0.26968287499999999,-3.0972669583333334
1413393887800760576,-0.013962634015954637,0.016057029118347832,0.08377580409572781,8.8014683749999989,-0.23699404166666665,-2.7213453750000003
1413393887805760512,0.013264502315156905,0.0034906585039886592,0.090757121103705138,10.256121458333332,-0.63743225000000003,-3.2852277500000002
1413393887810760448,0.021642082724729686,0.033510321638291124,0.099832833214075656,9.0057735833333332,0.057205458333333334,-2.803067458333333
1413393887815760384,0.021642082724729686,0.034906585039886591,0.11170107212763709,9.733100125,0.35140495833333335,-3.2116778749999999
1413393887820760576,-0.0062831853071795866,0.05305800926062762,0.087266462599716474,9.0793234583333327,-0.040861041666666667,-2.6477955
1413393887825760512,-0.0069813170079773184,0.012566370614359173,0.084473935796525554,9.2345954166666662,-0.024516625,-3.0155448749999998
1413393887830760448,0.0,0.028623399732707,0.075398223686155036,9.643205833333333,-0.25333845833333329,-3.1463002083333333
1413393887835760384,0.00069813170079773186,0.037000980142279788,0.080983277292536876,8.6216797916666668,0.16344416666666667,-2.852100708333333
1413393887840760576,-0.008377580409572781,0.0307177948351002,0.090058989402907408,9.1692177499999996,0.22882183333333334,-2.9174783749999995
1413393887845760512,-0.020943951023931952,0.032114058236695664,0.067020643276582248,8.7851239583333331,-0.16344416666666667,-2.6886565416666666
1413393887850760448,-0.01117010721276371,-0.008377580409572781,0.071907565182166372,9.0384624166666665,-0.16344416666666667,-3.0400614999999998
1413393887855760384,0.0062831853071795866,0.012566370614359173,0.074700091985357306,9.332661916666666,-0.24516625,-3.1299557916666663
1413393887860760576,0.010471975511965976,0.0034906585039886592,0.07749261878854824,8.7851239583333331,0.057205458333333334,-2.7376897916666665
1413393887865760512,0.0076794487087750501,0.012566370614359173,0.070511301780570912,9.7739611666666661,0.10623870833333333,-3.0809225416666663
1413393887870760448,-0.0041887902047863905,0.0041887902047863905,0.063529984772593598,8.9485681249999995,0.032688833333333334,-2.7622064166666664
1413393887875760384,-0.0090757121103705145,-0.011868238913561441,0.07819075048934597,9.5778281666666665,0.0081722083333333334,-3.2852277500000002
1413393887880760576,-0.008377580409572781,0.029321531433504733,0.087964594300514204,9.6513780416666659,-0.13892754166666665,-3.138128
1413393887885760512,-0.0055850536063818549,0.0097738438111682462,0.08377580409572781,9.1610455416666667,-0.30237170833333332,-3.0155448749999998
1413393887890760448,-0.0048869219055841231,0.014660765716752367,0.07749261878854824,10.019127416666667,-0.098066500000000001,-2.9828560416666661
1413393887895760384,-0.0034906585039886592,0.018849555921538759,0.076794487087750496,9.4143839999999983,-0.13075533333333333,-2.8847895416666667
1413393887900760576,-0.01117010721276371,0.0153588974175501,0.074001960284559576,9.7167557083333325,-0.11441091666666667,-3.1544724166666662
1413393887905760512,-0.0041887902047863905,0.0307177948351002,0.084473935796525554,9.6922390833333321,-0.34323275000000003,-3.0400614999999998
1413393887910760448,0.012566370614359173,0.023736477827122883,0.090757121103705138,9.1447011249999992,-0.35957716666666667,-2.9256505833333333
1413393887915760384,0.013962634015954637,0.023038346126325153,0.073303828583761846,9.6023447916666651,0.073549874999999987,-2.9992004583333332
1413393887920760576,0.0041887902047863905,0.025132741228718346,0.078888882190143686,9.0384624166666665,0.10623870833333333,-2.803067458333333
1413393887925760512,-0.0090757121103705145,0.012566370614359173,0.085172067497323284,9.5451393333333332,0.065377666666666667,-3.1544724166666662
1413393887930760448,-0.010471975511965976,0.049567350756638949,0.095644043009289262,9.6677224583333334,0.040861041666666667,-3.138128
1413393887935760384,-0.0041887902047863905,0.039793506945470715,0.10122909661567112,8.5154410833333323,-0.196133,-2.8929617499999996
1413393887940760576,0.0013962634015954637,0.022340214425527419,0.087964594300514204,9.4634172499999991,-0.27785508333333331,-2.9011339583333333
1413393887945760512,0.0097738438111682462,0.050265482457436693,0.08237954069413235,9.0466346249999994,-0.081722083333333334,-2.8439284999999996
1413393887950760448,0.0062831853071795866,0.0055850536063818549,0.086568330898918744,8.7197462916666666,0.04903325,-2.827584083333333
1413393887955760384,-0.0076794487087750501,0.02652900463031381,0.071907565182166372,9.6513780416666659,0.098066500000000001,-3.2116778749999999
1413393887960760576,-0.0062831853071795866,0.039793506945470715,0.080285145591739146,8.9730847499999999,0.040861041666666667,-2.9992004583333332
1413393887965760512,0.0034906585039886592,0.0020943951023931952,0.07958701389094143,8.9567403333333324,-0.21247741666666667,-2.8194118749999997
1413393887970760448,0.0,0.022340214425527419,0.055850536063818547,9.5206227083333328,0.14709974999999997,-2.9419949999999999
1413393887975760384,-0.00069813170079773186,0.008377580409572781,0.069813170079773182,8.834157208333334,0.15527195833333335,-2.7213453750000003
1413393887980760576,-0.014660765716752367,0.0048869219055841231,0.063529984772593598,9.9864385833333333,0.040861041666666667,-3.2035056666666666
1413393887985760512,-0.018849555921538759,0.047472955654245766,0.066322511575784518,9.643205833333333,-0.089894291666666667,-2.852100708333333
1413393887990760448,-0.010471975511965976,0.0055850536063818549,0.08237954069413235,9.332661916666666,-0.49850470833333332,-2.8357562916666668
1413393887995760384,0.00069813170079773186,0.029321531433504733,0.080285145591739146,10.010955208333332,-0.59657120833333332,-2.9910282499999998
1413393888000760576,0.01117010721276371,0.038397243543875248,0.074700091985357306,9.193734375,0.13892754166666665,-2.9746838333333332
1413393888005760512,0.016755160819145562,0.0041887902047863905,0.087964594300514204,9.2672842499999994,0.20430520833333332,-2.9256505833333333
1413393888010760448,0.0076794487087750501,0.016755160819145562,0.090757121103705138,9.8393388333333327,0.073549874999999987,-3.1299557916666663
1413393888015760384,-0.01117010721276371,0.0307177948351002,0.086568330898918744,9.3653507499999993,0.098066500000000001,-3.0809225416666663
1413393888020760576,-0.0097738438111682462,0.0048869219055841231,0.10192722831646883,9.4634172499999991,-0.26151066666666667,-2.9501672083333332
1413393888025760512,0.00069813170079773186,0.023038346126325153,0.089360857702109678,9.4389006250000005,-0.56388237500000005,-2.9828560416666661
1413393888030760448,0.0020943951023931952,0.012566370614359173,0.071209433481368656,9.0057735833333332,-0.13075533333333333,-2.6968287499999999
1413393888035760384,0.010471975511965976,0.0020943951023931952,0.08377580409572781,9.3244897083333331,0.16344416666666667,-3.0400614999999998
1413393888040760576,-0.0013962634015954637,0.018849555921538759,0.08168140899333462,9.2264232083333333,0.17978858333333333,-2.9174783749999995
1413393888045760512,-0.013962634015954637,0.011868238913561441,0.073303828583761846,9.0711512499999998,-0.040861041666666667,-3.0155448749999998
1413393888050760448,-0.013962634015954637,0.025132741228718346,0.07958701389094143,9.4634172499999991,-0.098066500000000001,-3.0155448749999998
1413393888055760384,-0.0013962634015954637,0.035604716740684328,0.07749261878854824,8.9649125416666671,-0.3105439166666667,-2.9093061666666666
1413393888060760576,0.0097738438111682462,0.014660765716752367,0.069813170079773182,9.2591120416666666,-0.196133,-2.8929617499999996
1413393888065760512,0.011868238913561441,0.020245819323134219,0.078888882190143686,9.1365289166666663,0.098066500000000001,-2.8929617499999996
1413393888070760448,0.008377580409572781,0.01117010721276371,0.085870199198121014,9.3163174999999985,0.13075533333333333,-3.0482337083333335
1413393888075760384,-0.0090757121103705145,0.013962634015954637,0.07749261878854824,9.6186892083333326,0.18796079166666665,-3.2198500833333328
1413393888080760576,-0.023038346126325153,0.036302848441482058,0.080285145591739146,9.5124504999999999,0.065377666666666667,-3.138128
1413393888085760512,-0.013962634015954637,0.02722713633111154,0.08168140899333462,9.1692177499999996,-0.35957716666666667,-3.0727503333333335
1413393888090760448,0.0020943951023931952,0.024434609527920613,0.07609635538695278,9.5696559583333336,-0.29419949999999995,-3.0073726666666665
1413393888095760384,0.013264502315156905,0.021642082724729686,0.07749261878854824,9.1365289166666663,-0.073549874999999987,-2.9256505833333333
1413393888100760576,0.014660765716752367,0.016057029118347832,0.08237954069413235,9.5778281666666665,0.024516625,-3.1299557916666663
1413393888105760512,0.0048869219055841231,0.020245819323134219,0.078888882190143686,9.594172583333334,0.13075533333333333,-3.138128
1413393888110760448,-0.014660765716752367,0.042586033748661642,0.067718774977379978,9.6840668749999992,0.26968287499999999,-3.2280222916666665
1413393888115760384,-0.017453292519943295,0.049567350756638949,0.080983277292536876,9.193734375,-0.15527195833333335,-2.7948952499999997
1413393888120760576,-0.0048869219055841231,0.023736477827122883,0.089360857702109678,9.4307284166666658,-0.4494714583333333,-2.852100708333333
1413393888125760512,0.0076794487087750501,0.0307177948351002,0.087964594300514204,9.1201845000000006,-0.18796079166666665,-2.8194118749999997
1413393888130760448,0.012566370614359173,0.017453292519943295,0.091455252804502868,9.4552450416666662,0.040861041666666667,-2.9828560416666661
1413393888135760384,0.01117010721276371,0.024434609527920613,0.086568330898918744,9.4307284166666658,-0.024516625,-3.0727503333333335
1413393888140760576,-0.014660765716752367,0.027925268031909273,0.073303828583761846,9.5614837499999989,0.27785508333333331,-3.1708168333333329
1413393888145760512,-0.023736477827122883,0.052359877559829883,0.071907565182166372,9.2019065833333329,-0.040861041666666667,-2.8357562916666668
1413393888150760448,-0.0090757121103705145,0.035604716740684328,0.07958701389094143,8.9730847499999999,-0.47398808333333331,-2.8439284999999996
1413393888155760384,0.0097738438111682462,0.017453292519943295,0.08168140899333462,9.0711512499999998,-0.41678262500000002,-2.8194118749999997
1413393888160760576,0.018849555921538759,0.022340214425527419,0.078888882190143686,9.0711512499999998,0.016344416666666667,-2.7948952499999997
1413393888165760512,0.013962634015954637,0.016755160819145562,0.080983277292536876,9.3653507499999993,0.0081722083333333334,-3.1299557916666663
1413393888170760448,0.00069813170079773186,0.01117010721276371,0.071209433481368656,9.2264232083333333,0.35957716666666667,-2.9093061666666666
1413393888175760384,-0.020943951023931952,0.02583087292951608,0.072605696882964116,9.5451393333333332,0.3105439166666667,-3.0645781249999997
1413393888180760576,-0.034208453339088861,0.040491638646268438,0.075398223686155036,9.0874956666666655,-0.28602729166666663,-2.7703786249999998
1413393888185760512,-0.012566370614359173,0.0048869219055841231,0.090757121103705138,9.2345954166666662,-0.73549874999999998,-2.8766173333333334
1413393888190760448,0.016057029118347832,0.013264502315156905,0.085870199198121014,9.5042782916666653,-0.20430520833333332,-2.9910282499999998
1413393888195760384,0.021642082724729686,0.012566370614359173,0.091455252804502868,9.332661916666666,0.04903325,-2.9419949999999999
1413393888200760576,0.0097738438111682462,-0.0013962634015954637,0.074001960284559576,9.7004112916666649,0.11441091666666667,-3.1054391666666663
1413393888205760512,-0.0069813170079773184,0.0034906585039886592,0.062133721370998138,9.7576167499999986,0.3350605416666666,-3.2280222916666665
1413393888210760448,-0.022340214425527419,0.041189770347066175,0.063529984772593598,9.5206227083333328,0.10623870833333333,-3.0890947499999997
1413393888215760384,-0.019547687622336492,0.020943951023931952,0.085172067497323284,8.9730847499999999,-0.36774937499999999,-2.9419949999999999
1413393888220760576,0.0,0.0076794487087750501,0.085172067497323284,9.4634172499999991,-0.55571016666666662,-2.9338227916666666
1413393888225760512,0.018151424220741029,0.020245819323134219,0.096342174710086978,9.3244897083333331,-0.15527195833333335,-2.9992004583333332
1413393888230760448,0.016755160819145562,0.016755160819145562,0.087964594300514204,9.4552450416666662,0.13075533333333333,-3.2280222916666665
1413393888235760384,0.0048869219055841231,0.012566370614359173,0.076794487087750496,9.471589458333332,0.26151066666666667,-3.0809225416666663
1413393888240760576,-0.016755160819145562,0.014660765716752367,0.071209433481368656,9.7412723333333329,0.24516625,-3.2933999583333331
1413393888245760512,-0.02722713633111154,0.052359877559829883,0.078888882190143686,9.0221180000000007,-0.22882183333333334,-2.8439284999999996
1413393888250760448,-0.0048869219055841231,0.030019663134302467,0.092851516206098328,9.0956678750000002,-0.60474341666666664,-2.8766173333333334
1413393888255760384,0.019547687622336492,0.018849555921538759,0.098436569812480182,9.1692177499999996,-0.32688833333333334,-2.7785508333333331
1413393888260760576,0.02722713633111154,0.023038346126325153,0.089360857702109678,9.3081452916666674,-0.024516625,-2.9992004583333332
1413393888265760512,0.0153588974175501,0.023038346126325153,0.078888882190143686,9.3735229583333322,0.24516625,-3.138128
1413393888270760448,-0.013264502315156905,0.018151424220741029,0.048869219055841226,9.4797616666666666,0.24516625,-3.1054391666666663
1413393888275760384,-0.022340214425527419,0.037000980142279788,0.055152404363020817,9.3490063333333335,0.17978858333333333,-3.0564059166666664
1413393888280760576,-0.022340214425527419,0.048869219055841226,0.062831853071795868,8.9976013749999986,-0.22882183333333334,-2.6723121249999999
1413393888285760512,-0.0069813170079773184,0.021642082724729686,0.090757121103705138,8.9894291666666657,-0.51484912499999991,-2.6804843333333328
1413393888290760448,0.0090757121103705145,0.0097738438111682462,0.099134701513277898,9.4634172499999991,0.20430520833333332,-3.0318892916666664
1413393888295760384,0.0041887902047863905,0.020245819323134219,0.087266462599716474,9.242767624999999,0.27785508333333331,-2.9174783749999995
1413393888300760576,-0.012566370614359173,0.011868238913561441,0.071209433481368656,9.6186892083333326,-0.098066500000000001,-3.3179165833333331
1413393888305760512,-0.010471975511965976,0.016057029118347832,0.07819075048934597,9.6350336250000002,-0.098066500000000001,-3.0237170833333331
1413393888310760448,0.0034906585039886592,0.041189770347066175,0.071209433481368656,9.7085834999999996,-0.7028099166666667,-3.0237170833333331
1413393888315760384,0.033510321638291124,0.044680428851054839,0.099832833214075656,9.1692177499999996,-0.55571016666666662,-2.7376897916666665
1413393888320760576,0.052359877559829883,0.0069813170079773184,0.114493598930828,9.3571785416666664,-0.098066500000000001,-2.9746838333333332
1413393888325760512,0.020943951023931952,0.0307177948351002,0.094247779607693802,9.7576167499999986,0.68646550000000006,-3.2116778749999999
1413393888330760448,-0.033510321638291124,0.023038346126325153,0.065624379874986788,9.2754564583333323,0.89077070833333327,-3.138128
1413393888335760384,-0.05166174585903216,0.023736477827122883,0.064228116473391328,9.3816951666666668,0.14709974999999997,-3.1136113750000001
1413393888340760576,-0.055850536063818547,0.041887902047863905,0.048869219055841226,9.3571785416666664,-0.48216029166666663,-2.7050009583333332
1413393888345760512,-0.018151424220741029,0.008377580409572781,0.07958701389094143,8.9485681249999995,-0.75184316666666662,-2.8847895416666667
1413393888350760448,0.038397243543875248,0.016057029118347832,0.11519173063162574,9.3163174999999985,-0.40043820833333332,-2.9011339583333333
1413393888355760384,0.046076692252650306,0.0097738438111682462,0.1096066770252439,9.332661916666666,0.27785508333333331,-3.1136113750000001
1413393888360760576,0.014660765716752367,0.023038346126325153,0.086568330898918744,9.5369671250000003,0.44129924999999998,-3.1054391666666663
1413393888365760512,-0.010471975511965976,0.027925268031909273,0.071907565182166372,9.6513780416666659,-0.04903325,-3.2280222916666665
1413393888370760448,-0.011868238913561441,0.046774823953448029,0.050963614158234416,9.5451393333333332,-0.30237170833333332,-2.8684451249999996
1413393888375760384,0.011868238913561441,0.039793506945470715,0.08168140899333462,8.9240514999999991,-0.024516625,-2.7213453750000003
1413393888380760576,0.0062831853071795866,0.034208453339088861,0.080983277292536876,9.2672842499999994,0.36774937499999999,-3.2035056666666666
1413393888385760512,-0.033510321638291124,0.050963614158234416,0.069813170079773182,9.2019065833333329,0.44129924999999998,-3.0809225416666663
1413393888390760448,-0.05445427266222308,0.029321531433504733,0.072605696882964116,9.3490063333333335,0.16344416666666667,-3.1544724166666662
1413393888395760384,-0.050265482457436693,0.043284165449459372,0.060737457969402671,9.3163174999999985,-0.86625408333333331,-2.6477955
1413393888400760576,-0.0048869219055841231,0.030019663134302467,0.076794487087750496,8.6298519999999996,-0.85808187499999988,-2.623278875
1413393888405760512,0.046774823953448029,-0.0020943951023931952,0.091455252804502868,9.2754564583333323,-0.68646550000000006,-2.9338227916666666
1413393888410760448,0.052359877559829883,-0.0013962634015954637,0.07609635538695278,9.2918008749999998,0.073549874999999987,-2.9501672083333332
1413393888415760384,0.037000980142279788,0.0013962634015954637,0.072605696882964116,9.594172583333334,0.25333845833333329,-3.0564059166666664
1413393888420760576,0.0055850536063818549,0.0027925268031909274,0.085172067497323284,9.6350336250000002,0.50667691666666659,-2.9338227916666666
1413393888425760512,-0.016057029118347832,0.016755160819145562,0.096342174710086978,9.3408341249999989,0.45764366666666667,-2.8357562916666668
1413393888430760448,-0.046076692252650306,0.0048869219055841231,0.086568330898918744,9.0793234583333327,0.51484912499999991,-2.9501672083333332
1413393888435760384,-0.062831853071795868,0.008377580409572781,0.07609635538695278,9.7657889583333333,-0.35140495833333335,-3.1217835833333334
1413393888440760576,-0.05305800926062762,0.018151424220741029,0.050963614158234416,9.1528733333333321,-0.60474341666666664,-2.8602729166666667
1413393888445760512,0.0069813170079773184,0.013264502315156905,0.089360857702109678,9.6023447916666651,-0.89894291666666659,-2.9828560416666661
1413393888450760448,0.043284165449459372,0.037699111843077518,0.090757121103705138,9.2591120416666666,-0.11441091666666667,-2.9583394166666666
1413393888455760384,0.055850536063818547,0.030019663134302467,0.1075122819228507,9.242767624999999,0.20430520833333332,-3.0400614999999998
1413393888460760576,0.024434609527920613,0.043982297150257102,0.060039326268604934,9.2019065833333329,0.15527195833333335,-3.0890947499999997
1413393888465760512,0.01117010721276371,0.014660765716752367,0.08237954069413235,9.4062117916666654,0.37592158333333331,-3.1463002083333333
1413393888470760448,0.0034906585039886592,0.028623399732707,0.088662726001311934,9.4470728333333334,0.18796079166666665,-3.0318892916666664
1413393888475760384,-0.021642082724729686,0.027925268031909273,0.092153384505300612,8.6380242083333325,0.4903325,-2.8847895416666667
1413393888480760576,-0.048171087355043489,0.0062831853071795866,0.089360857702109678,9.3735229583333322,-0.016344416666666667,-3.1054391666666663
1413393888485760512,-0.057944931166211737,0.0076794487087750501,0.056548667764616284,9.2345954166666662,-0.51484912499999991,-3.1054391666666663
1413393888490760448,-0.0034906585039886592,-0.0020943951023931952,0.08237954069413235,9.5696559583333336,-0.66194887499999999,-2.8766173333333334
1413393888495760384,0.023038346126325153,0.011868238913561441,0.080285145591739146,9.9864385833333333,-0.58839899999999989,-3.3260887916666664
1413393888500760576,0.0307177948351002,0.052359877559829883,0.07749261878854824,8.883190458333333,0.04903325,-2.6314510833333329
1413393888505760512,0.013962634015954637,0.022340214425527419,0.069813170079773182,9.6595502499999988,-0.081722083333333334,-3.2116778749999999
1413393888510760448,0.0090757121103705145,0.041887902047863905,0.07749261878854824,9.6105169999999998,-0.040861041666666667,-3.138128
1413393888515760384,0.028623399732707,0.029321531433504733,0.11170107212763709,9.5696559583333336,0.21247741666666667,-3.0400614999999998
1413393888520760576,0.0034906585039886592,0.090058989402907408,0.10332349171806432,9.2672842499999994,0.46581587499999999,-3.1953334583333328
1413393888525760512,-0.029321531433504733,0.05445427266222308,0.099832833214075656,8.7279184999999995,0.25333845833333329,-2.5905900416666663
1413393888530760448,-0.05305800926062762,0.030019663134302467,0.061435589670200401,9.4634172499999991,-0.26151066666666667,-3.4078108749999996
1413393888535760384,-0.023038346126325153,0.056548667764616284,0.071209433481368656,9.193734375,-0.50667691666666659,-2.7622064166666664
1413393888540760576,0.013962634015954637,0.02722713633111154,0.085172067497323284,9.1120122916666659,-0.64560445833333324,-2.9910282499999998
1413393888545760512,0.02722713633111154,0.042586033748661642,0.076794487087750496,8.6053353749999992,-0.21247741666666667,-2.5415567916666664
1413393888550760448,0.018151424220741029,-0.0069813170079773184,0.05375614096142535,8.6543686249999983,-0.17978858333333333,-2.557901208333333
1413393888555760384,0.018849555921538759,-0.011868238913561441,0.056548667764616284,9.9047164999999993,0.14709974999999997,-3.342433208333333
1413393888560760576,0.016755160819145562,0.025132741228718346,0.073303828583761846,9.5124504999999999,0.60474341666666664,-3.162644625
1413393888565760512,-0.0013962634015954637,0.032812189937493394,0.1096066770252439,9.1528733333333321,0.43312704166666666,-2.6477955
1413393888570760448,-0.035604716740684328,0.042586033748661642,0.08237954069413235,9.0956678750000002,-0.024516625,-2.6641399166666666
1413393888575760384,-0.031415926535897934,-0.0055850536063818549,0.072605696882964116,9.4470728333333334,-0.37592158333333331,-2.9174783749999995
1413393888580760576,-0.0055850536063818549,0.024434609527920613,0.08168140899333462,9.822994416666667,-0.46581587499999999,-3.1463002083333333
1413393888585760512,0.0090757121103705145,0.018849555921538759,0.10890854532444616,9.594172583333334,-0.057205458333333334,-2.7867230416666664
1413393888590760448,0.008377580409572781,0.0307177948351002,0.097738438111682452,9.643205833333333,-0.17161637500000002,-3.0073726666666665
1413393888595760384,-0.0020943951023931952,0.02652900463031381,0.063529984772593598,9.4389006250000005,-0.52302133333333334,-2.6314510833333329
1413393888600760576,0.013962634015954637,0.02583087292951608,0.049567350756638949,9.643205833333333,-0.37592158333333331,-3.1544724166666662
1413393888605760512,0.028623399732707,0.01117010721276371,0.067718774977379978,9.6677224583333334,0.0,-2.6314510833333329
1413393888610760448,0.010471975511965976,0.02583087292951608,0.07819075048934597,9.6186892083333326,-0.0081722083333333334,-2.7622064166666664
1413393888615760384,-0.011868238913561441,0.055152404363020817,0.071209433481368656,9.0711512499999998,0.089894291666666667,-2.5742456250000001
1413393888620760576,-0.017453292519943295,0.013264502315156905,0.087266462599716474,9.1692177499999996,0.040861041666666667,-3.1463002083333333
1413393888625760512,-0.0069813170079773184,0.023736477827122883,0.114493598930828,9.5533115416666661,0.26968287499999999,-3.342433208333333
1413393888630760448,-0.018151424220741029,0.02583087292951608,0.11588986233242347,9.3163174999999985,-0.089894291666666667,-3.1054391666666663
1413393888635760384,-0.020245819323134219,0.038397243543875248,0.08168140899333462,9.1038400833333331,-0.30237170833333332,-2.9419949999999999
1413393888640760576,0.016057029118347832,0.0,0.08168140899333462,8.9894291666666657,-0.5475379583333333,-2.7540342083333331
1413393888645760512,0.034906585039886591,0.008377580409572781,0.086568330898918744,9.5778281666666665,0.065377666666666667,-3.1544724166666662
1413393888650760448,0.0097738438111682462,0.0307177948351002,0.07609635538695278,9.2918008749999998,0.24516625,-2.9910282499999998
1413393888655760384,-0.016755160819145562,0.062133721370998138,0.05166174585903216,9.3898673749999997,-0.016344416666666667,-3.2443667083333327
1413393888660760576,0.0027925268031909274,0.0027925268031909274,0.069813170079773182,8.4010301666666667,-0.032688833333333334,-2.3862848333333333
1413393888665760512,0.012566370614359173,0.025132741228718346,0.098436569812480182,9.7657889583333333,0.40043820833333332,-3.1544724166666662
1413393888670760448,-0.018849555921538759,0.070511301780570912,0.069115038378975438,9.3816951666666668,-0.196133,-3.0809225416666663
1413393888675760384,-0.022340214425527419,0.023038346126325153,0.080285145591739146,8.6053353749999992,-0.62108783333333339,-2.5252123749999997
1413393888680760576,0.024434609527920613,0.016057029118347832,0.096342174710086978,9.4961060833333324,-0.392266,-3.0645781249999997
1413393888685760512,0.0069813170079773184,0.0153588974175501,0.097738438111682452,9.2345954166666662,0.56388237500000005,-3.138128
1413393888690760448,-0.032114058236695664,0.040491638646268438,0.05445427266222308,9.6350336250000002,-0.21247741666666667,-3.2035056666666666
1413393888695760384,-0.0097738438111682462,-0.017453292519943295,0.058643062867009467,8.5889909583333335,-0.56388237500000005,-2.4434902916666665
1413393888700760576,0.02583087292951608,0.023736477827122883,0.064926248174189058,9.8556832499999985,-0.122583125,-2.9828560416666661
1413393888705760512,0.0069813170079773184,0.016755160819145562,0.075398223686155036,9.5287949166666657,0.51484912499999991,-3.3996386666666667
1413393888710760448,-0.027925268031909273,0.02722713633111154,0.05445427266222308,9.0874956666666655,-0.30237170833333332,-2.5252123749999997
1413393888715760384,0.013962634015954637,-0.0020943951023931952,0.090757121103705138,9.7494445416666657,-0.83356525000000004,-2.9011339583333333
1413393888720760576,0.034208453339088861,0.011868238913561441,0.114493598930828,9.4143839999999983,0.65377666666666667,-3.4241552916666667
1413393888725760512,-0.0097738438111682462,0.062831853071795868,0.084473935796525554,9.994610791666668,0.26151066666666667,-2.9828560416666661
1413393888730760448,-0.029321531433504733,0.0307177948351002,0.090757121103705138,9.1855621666666654,-0.7028099166666667,-3.0237170833333331
1413393888735760384,0.012566370614359173,0.044680428851054839,0.10332349171806432,8.8505016249999997,0.089894291666666667,-2.4925235416666665
1413393888740760576,0.0034906585039886592,0.057246799465414,0.10262536001726656,10.484943291666665,0.22882183333333334,-3.6693215416666662
1413393888745760512,-0.023038346126325153,0.048869219055841226,0.056548667764616284,8.4010301666666667,-0.41678262500000002,-2.3862848333333333
1413393888750760448,0.0041887902047863905,0.013962634015954637,0.062133721370998138,8.7360907083333323,-0.32688833333333334,-2.6723121249999999
1413393888755760384,0.036302848441482058,0.041189770347066175,0.10890854532444616,10.460426666666667,0.36774937499999999,-3.6448049166666663
1413393888760760576,-0.0097738438111682462,0.080285145591739146,0.060039326268604934,8.4255467916666653,-0.057205458333333334,-2.557901208333333
1413393888765760512,-0.014660765716752367,-0.0090757121103705145,0.034906585039886591,8.9158792916666663,-0.52302133333333334,-2.5987622500000001
1413393888770760448,0.0153588974175501,0.012566370614359173,0.097738438111682452,9.8148222083333323,0.53936574999999998,-3.6366327083333334
1413393888775760384,-0.0076794487087750501,0.07819075048934597,0.070511301780570912,8.4990966666666665,-0.27785508333333331,-2.7867230416666664
1413393888780760576,-0.038397243543875248,0.017453292519943295,0.023736477827122883,8.7279184999999995,-0.58839899999999989,-2.5415567916666664
1413393888785760512,0.0097738438111682462,0.01117010721276371,0.1054178868204575,9.8883720833333317,0.40861041666666664,-3.4813607499999994
1413393888790760448,0.011868238913561441,0.071907565182166372,0.11100294042683936,8.9485681249999995,-0.29419949999999995,-2.7785508333333331
1413393888795760384,-0.0055850536063818549,0.010471975511965976,0.063529984772593598,8.8096405833333318,-0.78453200000000001,-2.378112625
1413393888800760576,0.018151424220741029,-0.033510321638291124,0.096342174710086978,8.9403959166666649,0.53119354166666666,-2.9992004583333332
1413393888805760512,0.012566370614359173,0.010471975511965976,0.1165879940332212,9.822994416666667,0.53936574999999998,-3.2525389166666665
1413393888810760448,-0.02583087292951608,0.013264502315156905,0.062831853071795868,9.5696559583333336,-0.85808187499999988,-2.7458620000000002
1413393888815760384,-0.016755160819145562,-0.027925268031909273,0.050265482457436693,8.7034018749999991,-0.22064962499999999,-2.8112396666666668
1413393888820760576,0.008377580409572781,0.01117010721276371,0.092851516206098328,10.337843541666667,0.43312704166666666,-3.4731885416666666
1413393888825760512,-0.0097738438111682462,0.035604716740684328,0.099832833214075656,9.7085834999999996,-0.38409379166666668,-2.6641399166666666
1413393888830760448,-0.01117010721276371,-0.0090757121103705145,0.048869219055841226,8.5072688749999994,-0.37592158333333331,-2.8684451249999996
1413393888835760384,0.0307177948351002,-0.0027925268031909274,0.1165879940332212,10.280638083333333,0.31871612500000002,-3.2852277500000002
1413393888840760576,0.0034906585039886592,0.057944931166211737,0.10821041362364843,9.8066499999999994,-0.122583125,-3.3506054166666663
1413393888845760512,-0.011868238913561441,0.022340214425527419,0.062133721370998138,7.9842475416666669,-0.073549874999999987,-2.4271458749999999
1413393888850760448,0.016755160819145562,0.01117010721276371,0.11170107212763709,9.8556832499999985,0.40861041666666664,-3.3342610000000001
1413393888855760384,-0.0013962634015954637,0.065624379874986788,0.091455252804502868,9.7657889583333333,0.040861041666666667,-3.2116778749999999
1413393888860760576,-0.02652900463031381,0.037000980142279788,0.014660765716752367,7.7309090833333327,-0.20430520833333332,-2.3290793749999996
1413393888865760512,-0.0020943951023931952,-0.017453292519943295,0.080285145591739146,9.9782663750000005,0.49850470833333332,-3.3342610000000001
1413393888870760448,-0.0076794487087750501,0.043284165449459372,0.085172067497323284,9.6595502499999988,0.098066500000000001,-3.1953334583333328
1413393888875760384,-0.024434609527920613,0.049567350756638949,0.032114058236695664,8.5399577083333327,-0.46581587499999999,-2.3699404166666667
1413393888880760576,0.0041887902047863905,-0.013962634015954637,0.086568330898918744,9.4389006250000005,0.14709974999999997,-3.1299557916666663
1413393888885760512,0.023736477827122883,0.022340214425527419,0.11728612573401893,9.7984777916666665,-0.29419949999999995,-3.1789890416666662
1413393888890760448,-0.0013962634015954637,0.048869219055841226,0.061435589670200401,8.6870574583333333,-0.66194887499999999,-2.2146684583333331
1413393888895760384,0.0055850536063818549,0.0055850536063818549,0.087266462599716474,10.272465875,0.38409379166666668,-3.5630828333333331
1413393888900760576,0.0041887902047863905,0.037000980142279788,0.11868238913561441,9.7249279166666671,0.11441091666666667,-3.1871612499999999
1413393888905760512,-0.037000980142279788,0.060039326268604934,0.044680428851054839,9.471589458333332,-0.78453200000000001,-3.0890947499999997
1413393888910760448,-0.030019663134302467,0.030019663134302467,0.037000980142279788,9.4062117916666654,0.040861041666666667,-3.1054391666666663
1413393888915760384,0.0062831853071795866,0.013264502315156905,0.1054178868204575,9.0711512499999998,-0.081722083333333334,-2.9093061666666666
1413393888920760576,-0.0062831853071795866,0.046774823953448029,0.057246799465414,9.9210609166666668,-1.299381125,-3.0318892916666664
1413393888925760512,0.0,0.029321531433504733,0.036302848441482058,8.9567403333333324,0.14709974999999997,-3.3179165833333331
1413393888930760448,0.037699111843077518,0.016755160819145562,0.13753194505715316,8.7115740833333319,0.51484912499999991,-2.6968287499999999
1413393888935760384,0.010471975511965976,0.02652900463031381,0.097040306410884708,10.076332875,-0.86625408333333331,-2.7867230416666664
1413393888940760576,-0.0090757121103705145,0.036302848441482058,0.061435589670200401,9.4470728333333334,0.28602729166666663,-2.9583394166666666
1413393888945760512,0.035604716740684328,0.008377580409572781,0.15358897417550099,9.4797616666666666,0.073549874999999987,-2.8684451249999996
1413393888950760448,-0.013962634015954637,0.022340214425527419,0.08307767239493008,9.5696559583333336,-0.3350605416666666,-3.1871612499999999
1413393888955760384,-0.028623399732707,0.048171087355043489,0.065624379874986788,9.0057735833333332,0.83356525000000004,-2.8439284999999996
1413393888960760576,0.0034906585039886592,0.0027925268031909274,0.1556833692778942,10.059988458333333,-0.21247741666666667,-3.2688833333333331
1413393888965760512,-0.030019663134302467,0.067718774977379978,0.069115038378975438,9.822994416666667,-0.79270420833333322,-3.3587776250000001
1413393888970760448,-0.016755160819145562,0.085870199198121014,0.067718774977379978,8.6625408333333329,0.31871612500000002,-2.5987622500000001
1413393888975760384,0.037000980142279788,0.045378560551852569,0.13264502315156904,9.5614837499999989,-0.67829329166666663,-2.5905900416666663
1413393888980760576,0.013962634015954637,0.055850536063818547,0.05375614096142535,9.2100787916666658,-0.80087641666666665,-2.9338227916666666
1413393888985760512,0.021642082724729686,0.048869219055841226,0.056548667764616284,8.9567403333333324,0.50667691666666659,-2.6314510833333329
1413393888990760448,0.039095375244672985,0.024434609527920613,0.10192722831646883,10.035471833333334,0.016344416666666667,-3.2688833333333331
1413393888995760384,-0.0055850536063818549,0.08168140899333462,0.02652900463031381,8.9240514999999991,0.5475379583333333,-3.1299557916666663
1413393889000760576,-0.017453292519943295,0.037699111843077518,0.098436569812480182,8.433719,0.69463770833333327,-2.4925235416666665
1413393889005760512,-0.032812189937493394,0.035604716740684328,0.071907565182166372,9.9864385833333333,0.032688833333333334,-3.587599458333333
1413393889010760448,-0.05445427266222308,0.075398223686155036,0.044680428851054839,7.9924197499999989,0.122583125,-2.6968287499999999
1413393889015760384,-0.018849555921538759,-0.013264502315156905,0.099134701513277898,8.7524351249999999,-0.392266,-2.4516624999999999
1413393889020760576,-0.0153588974175501,0.024434609527920613,0.07609635538695278,9.5206227083333328,-0.69463770833333327,-3.342433208333333
1413393889025760512,0.00069813170079773186,0.008377580409572781,0.07958701389094143,8.2130693749999999,-0.22882183333333334,-2.3862848333333333
1413393889030760448,0.034208453339088861,-0.039095375244672985,0.10262536001726656,10.133538333333334,-0.7028099166666667,-2.9746838333333332
1413393889035760384,0.027925268031909273,0.050963614158234416,0.049567350756638949,9.7085834999999996,-0.44129924999999998,-2.9174783749999995
1413393889040760576,0.038397243543875248,-0.011868238913561441,0.075398223686155036,8.9812569583333328,0.32688833333333334,-2.2637017083333331
1413393889045760512,0.0097738438111682462,-0.01117010721276371,0.059341194567807204,11.040653458333331,0.17161637500000002,-3.7837324583333327
1413393889050760448,-0.030019663134302467,0.11588986233242347,0.023736477827122883,8.6216797916666668,0.24516625,-2.7295175833333332
1413393889055760384,-0.025132741228718346,0.0090757121103705145,0.069813170079773182,9.4552450416666662,-0.081722083333333334,-2.803067458333333
1413393889060760576,-0.032114058236695664,0.08237954069413235,0.063529984772593598,10.158054958333333,-0.057205458333333334,-3.3179165833333331
1413393889065760512,-0.022340214425527419,0.041189770347066175,0.10332349171806432,8.0823140416666668,0.016344416666666667,-1.9531577916666665
1413393889070760448,-0.0055850536063818549,-0.032812189937493394,0.1165879940332212,9.872027666666666,-0.71915433333333334,-3.0400614999999998
1413393889075760384,0.010471975511965976,0.05166174585903216,0.1054178868204575,9.1692177499999996,-0.52302133333333334,-3.2280222916666665
1413393889080760576,0.038397243543875248,-0.0055850536063818549,0.13055062804917586,8.7687795416666656,-0.16344416666666667,-2.852100708333333
1413393889085760512,0.031415926535897934,-0.0076794487087750501,0.10611601852125524,10.346015749999999,-0.024516625,-3.1054391666666663
1413393889090760448,0.029321531433504733,0.046076692252650306,0.099832833214075656,8.744262916666667,0.073549874999999987,-2.7703786249999998
1413393889095760384,0.024434609527920613,-0.012566370614359173,0.097738438111682452,9.9619219583333329,0.10623870833333333,-3.1136113750000001
1413393889100760576,-0.0069813170079773184,0.0153588974175501,0.063529984772593598,10.051816249999998,0.44129924999999998,-3.1789890416666662
1413393889105760512,-0.020245819323134219,0.023736477827122883,0.069813170079773182,9.822994416666667,0.57205458333333326,-2.9174783749999995
1413393889110760448,-0.043284165449459372,0.034208453339088861,0.052359877559829883,10.321499124999999,-0.016344416666666667,-2.8929617499999996
1413393889115760384,-0.014660765716752367,0.08168140899333462,0.10053096491487339,9.2509398333333337,-0.196133,-3.5058773749999999
1413393889120760576,-0.00069813170079773186,0.10611601852125524,0.11379546723003027,9.3816951666666668,-0.73549874999999998,-2.8112396666666668
1413393889125760512,0.0090757121103705145,0.094945911308491532,0.1075122819228507,8.5481299166666673,-0.51484912499999991,-2.8602729166666667
1413393889130760448,0.041887902047863905,0.085870199198121014,0.1228711793404008,8.5072688749999994,0.28602729166666663,-3.0400614999999998
1413393889135760384,0.019547687622336492,0.0097738438111682462,0.10471975511965977,9.3898673749999997,0.098066500000000001,-2.3372515833333334
1413393889140760576,0.0,0.012566370614359173,0.093549647906896058,8.4500634166666657,0.35957716666666667,-3.5303939999999998
1413393889145760512,-0.023736477827122883,-0.0055850536063818549,0.073303828583761846,8.7606073333333327,-0.024516625,-2.4761791249999998
1413393889150760448,-0.032114058236695664,-0.036302848441482058,0.043284165449459372,9.2264232083333333,-0.10623870833333333,-3.3587776250000001
1413393889155760384,0.0034906585039886592,-0.025132741228718346,0.073303828583761846,9.4634172499999991,-0.32688833333333334,-3.1217835833333334
1413393889160760576,-0.008377580409572781,-0.020245819323134219,0.035604716740684328,10.076332875,-0.032688833333333334,-2.8602729166666667
1413393889165760512,0.018151424220741029,0.040491638646268438,0.078888882190143686,9.5369671250000003,0.9398039583333333,-3.2035056666666666
1413393889170760448,-0.00069813170079773186,0.062831853071795868,0.064228116473391328,9.5042782916666653,-0.024516625,-2.4680069166666665
1413393889175760384,-0.0020943951023931952,0.043982297150257102,0.098436569812480182,8.5399577083333327,0.79270420833333322,-3.0400614999999998
1413393889180760576,-0.0027925268031909274,0.10192722831646883,0.10821041362364843,10.574837583333332,-0.50667691666666659,-3.6121160833333334
1413393889185760512,-0.016057029118347832,0.05166174585903216,0.076794487087750496,8.1967249583333324,-0.56388237500000005,-1.4383086666666667
1413393889190760448,0.034906585039886591,-0.0048869219055841231,0.12636183784438945,9.5696559583333336,-0.58022679166666657,-3.8899711666666663
1413393889195760384,0.019547687622336492,0.048869219055841226,0.057944931166211737,9.4797616666666666,-0.96432058333333326,-2.3290793749999996
1413393889200760576,0.020245819323134219,-0.087964594300514204,0.093549647906896058,7.763597916666666,0.65377666666666667,-2.9746838333333332
1413393889205760512,-0.0076794487087750501,0.018151424220741029,0.05305800926062762,11.236786458333333,-0.41678262500000002,-2.9665116249999999
1413393889210760448,-0.039793506945470715,-0.013264502315156905,0.048171087355043489,8.1395194999999987,0.71915433333333334,-2.2064962499999998
1413393889215760384,-0.0055850536063818549,0.035604716740684328,0.087964594300514204,12.250140291666666,-0.89077070833333327,-4.126965208333333
1413393889220760576,-0.020943951023931952,0.05305800926062762,0.050265482457436693,8.8750182500000001,-0.098066500000000001,-1.6180972499999999
1413393889225760512,0.028623399732707,0.024434609527920613,0.10681415022205297,10.820003833333333,-0.089894291666666667,-4.8788083749999993
1413393889230760448,0.0013962634015954637,0.15847589608108512,0.019547687622336492,9.4552450416666662,-0.48216029166666663,-2.3045627499999997
1413393889235760384,0.017453292519943295,0.018849555921538759,0.11100294042683936,8.3029636666666669,0.84173745833333324,-3.4568441249999995
1413393889240760576,-0.0055850536063818549,0.15079644737231007,0.046774823953448029,9.6595502499999988,-1.0787315,-2.9093061666666666
1413393889245760512,0.0020943951023931952,-0.010471975511965976,0.099832833214075656,6.4070113333333332,0.84990966666666667,-1.6426138750000001
1413393889250760448,0.011868238913561441,0.034208453339088861,0.10053096491487339,10.574837583333332,-0.80087641666666665,-3.3587776250000001
1413393889255760384,0.008377580409572781,-0.0307177948351002,0.10402162341886204,7.1915433333333327,0.55571016666666662,-1.299381125
1413393889260760576,0.037000980142279788,-0.080285145591739146,0.14521139376592823,10.182571583333333,-0.80087641666666665,-4.5192312083333332
1413393889265760512,0.0069813170079773184,0.023736477827122883,0.074700091985357306,7.763597916666666,0.57205458333333326,-1.4628252916666666
1413393889270760448,0.022340214425527419,-0.05305800926062762,0.1165879940332212,10.574837583333332,0.098066500000000001,-4.5927810833333327
1413393889275760384,-0.048869219055841226,0.064926248174189058,-0.0013962634015954637,9.0466346249999994,0.016344416666666667,-2.0757409166666667
1413393889280760576,-0.0076794487087750501,-0.021642082724729686,0.11239920382843484,9.2836286666666652,0.47398808333333331,-3.4568441249999995
1413393889285760512,-0.023736477827122883,0.08307767239493008,0.020943951023931952,9.5696559583333336,-1.0869037083333333,-2.5742456250000001
1413393889290760448,0.02583087292951608,-0.02583087292951608,0.099832833214075656,7.6655314166666662,0.122583125,-2.3617682083333333
1413393889295760384,0.041887902047863905,0.024434609527920613,0.037699111843077518,9.7085834999999996,-0.83356525000000004,-2.852100708333333
1413393889300760576,0.048171087355043489,-0.055152404363020817,0.084473935796525554,8.6135075833333321,0.79270420833333322,-2.5987622500000001
1413393889305760512,0.014660765716752367,-0.0307177948351002,0.043284165449459372,9.6758946666666663,0.27785508333333331,-3.3751220416666667
1413393889310760448,-0.0076794487087750501,-0.05305800926062762,0.10192722831646883,8.343824708333333,0.58839899999999989,-2.3372515833333334
1413393889315760384,-0.027925268031909273,-0.058643062867009467,0.086568330898918744,9.9619219583333329,-0.46581587499999999,-3.2607111249999998
1413393889320760576,-0.033510321638291124,-0.041189770347066175,0.078888882190143686,10.337843541666667,-0.44129924999999998,-3.5630828333333331
1413393889325760512,-0.0090757121103705145,-0.036302848441482058,0.086568330898918744,8.5072688749999994,0.040861041666666667,-2.582417833333333
1413393889330760448,0.0048869219055841231,-0.016057029118347832,0.073303828583761846,9.872027666666666,-0.88259849999999995,-3.8245934999999998
1413393889335760384,0.0027925268031909274,-0.012566370614359173,0.073303828583761846,7.9842475416666669,0.78453200000000001,-1.9695022083333333
1413393889340760576,0.0062831853071795866,-0.096342174710086978,0.11519173063162574,10.109021708333332,-0.057205458333333334,-4.0534153333333327
1413393889345760512,-0.0153588974175501,0.00069813170079773186,0.094945911308491532,9.242767624999999,0.44129924999999998,-2.7948952499999997
1413393889350760448,-0.008377580409572781,-0.064228116473391328,0.11938052083641214,9.1447011249999992,-0.51484912499999991,-3.5467384166666669
1413393889355760384,-0.014660765716752367,-0.048171087355043489,0.085172067497323284,9.8393388333333327,-0.073549874999999987,-2.6559677083333328
1413393889360760576,0.0076794487087750501,-0.047472955654245766,0.094945911308491532,10.198916000000001,-0.18796079166666665,-3.6856659583333333
1413393889365760512,-0.0153588974175501,0.0090757121103705145,0.041887902047863905,9.6922390833333321,-0.4903325,-2.0185354583333335
1413393889370760448,0.016057029118347832,-0.041189770347066175,0.099832833214075656,8.3765135416666663,0.16344416666666667,-3.4650163333333333
1413393889375760384,-0.011868238913561441,-0.02652900463031381,0.073303828583761846,8.3519969166666659,-0.25333845833333329,-2.4516624999999999
1413393889380760576,0.0034906585039886592,-0.068416906678177722,0.14800392056911915,9.5369671250000003,0.83356525000000004,-3.9308322083333329
1413393889385760512,-0.027925268031909273,-0.020943951023931952,0.12007865253720987,9.643205833333333,-0.65377666666666667,-3.162644625
1413393889390760448,0.0020943951023931952,-0.035604716740684328,0.15219271077390556,10.035471833333334,0.22882183333333334,-3.2688833333333331
1413393889395760384,-0.0013962634015954637,0.0041887902047863905,0.097040306410884708,8.744262916666667,-1.2748645000000001,-2.9828560416666661
1413393889400760576,0.019547687622336492,-0.067020643276582248,0.090757121103705138,8.9976013749999986,0.36774937499999999,-3.5140495833333332
1413393889405760512,0.008377580409572781,-0.035604716740684328,0.05375614096142535,9.1610455416666667,-0.26151066666666667,-2.6804843333333328
1413393889410760448,0.0048869219055841231,-0.089360857702109678,0.092851516206098328,9.9782663750000005,0.3105439166666667,-3.6121160833333334
1413393889415760384,-0.016755160819145562,0.016057029118347832,0.097040306410884708,9.3490063333333335,0.073549874999999987,-2.9992004583333332
1413393889420760576,-0.01117010721276371,-0.028623399732707,0.14451326206513049,8.9894291666666657,-0.04903325,-2.9338227916666666
1413393889425760512,-0.0027925268031909274,0.028623399732707,0.14800392056911915,9.2100787916666658,-0.36774937499999999,-2.8847895416666667
1413393889430760448,0.0153588974175501,0.0090757121103705145,0.143116998663535,9.872027666666666,-0.38409379166666668,-3.67749375
1413393889435760384,-0.014660765716752367,0.040491638646268438,0.056548667764616284,8.6053353749999992,0.22882183333333334,-3.3179165833333331
1413393889440760576,-0.044680428851054839,-0.032114058236695664,0.02652900463031381,8.5399577083333327,-0.0081722083333333334,-2.9992004583333332
1413393889445760512,-0.057246799465414,-0.022340214425527419,0.020245819323134219,8.8178127916666664,0.4903325,-2.6968287499999999
1413393889450760448,-0.055850536063818547,-0.071209433481368656,0.027925268031909273,8.3519969166666659,-1.201314625,-2.2555295000000002
1413393889455760384,-0.050265482457436693,-0.12775810124598494,0.05166174585903216,8.8668460416666655,0.25333845833333329,-2.827584083333333
1413393889460760576,-0.008377580409572781,-0.15707963267948966,0.092851516206098328,8.7606073333333327,-0.76001537499999994,-1.5363751666666667
1413393889465760512,-0.019547687622336492,-0.1556833692778942,0.090058989402907408,10.550320958333334,-0.10623870833333333,-4.4783701666666662
1413393889470760448,0.0076794487087750501,-0.099134701513277898,0.12566370614359174,9.332661916666666,0.098066500000000001,-2.4761791249999998
1413393889475760384,-0.029321531433504733,-0.12147491593880534,0.1165879940332212,9.7657889583333333,0.3350605416666666,-4.5927810833333327
1413393889480760576,-0.0062831853071795866,-0.020245819323134219,0.15638150097869194,9.1773899583333325,0.36774937499999999,-2.5006957499999998
1413393889485760512,-0.039095375244672985,-0.080983277292536876,0.13334315485236678,10.354187958333334,-0.51484912499999991,-4.4375091250000001
1413393889490760448,0.0041887902047863905,0.035604716740684328,0.11100294042683936,10.362360166666665,-0.40861041666666664,-2.6886565416666666
1413393889495760384,0.016755160819145562,-0.062133721370998138,0.11309733552923257,8.2947914583333322,-0.69463770833333327,-3.92266
1413393889500760576,0.027925268031909273,0.0062831853071795866,0.092851516206098328,9.643205833333333,0.22064962499999999,-2.6314510833333329
1413393889505760512,0.0027925268031909274,-0.1291543646475804,0.1054178868204575,7.6328425833333329,0.56388237500000005,-3.0400614999999998
1413393889510760448,-0.016755160819145562,-0.099134701513277898,0.12845623294678266,11.261303083333333,0.80087641666666665,-3.6284604999999996
1413393889515760384,-0.05445427266222308,-0.18291050560900574,0.088662726001311934,7.0771324166666663,0.040861041666666667,-1.9776744166666664
1413393889520760576,-0.023736477827122883,-0.22828906616085831,0.13753194505715316,10.664731874999999,-0.66194887499999999,-3.8000768749999998
1413393889525760512,-0.023038346126325153,-0.25342180738957665,0.043284165449459372,6.905516041666667,-0.61291562499999996,-2.0267076666666664
1413393889530760448,0.01117010721276371,-0.35046211380046133,0.084473935796525554,10.452254458333334,-0.30237170833333332,-4.2168595
1413393889535760384,-0.013264502315156905,-0.27855454861829498,0.017453292519943295,8.253930416666666,0.90711512499999991,-2.0021910416666664
1413393889540760576,-0.027925268031909273,-0.33649947978450673,0.062831853071795868,11.906907541666666,0.64560445833333324,-4.8706361666666664
1413393889545760512,-0.087266462599716474,-0.19408061282176942,-0.013962634015954637,8.433719,0.40043820833333332,-1.2585200833333332
1413393889550760448,-0.066322511575784518,-0.28553586562627226,0.12147491593880534,12.103040541666665,-0.36774937499999999,-3.7265269999999999
1413393889555760384,-0.043284165449459372,-0.08237954069413235,0.057944931166211737,9.643205833333333,-1.0623870833333333,-2.3290793749999996
1413393889560760576,0.0076794487087750501,-0.20315632493213995,0.17034413499464657,10.770970583333334,-0.22064962499999999,-3.8164212916666664
1413393889565760512,0.0076794487087750501,-0.084473935796525554,0.08237954069413235,8.7606073333333327,0.0,-3.0645781249999997
1413393889570760448,-0.01117010721276371,-0.20525072003453312,0.14800392056911915,10.002782999999999,0.80087641666666665,-3.8491101249999997
1413393889575760384,-0.066322511575784518,-0.17174039839624203,0.057246799465414,8.1150028750000001,0.65377666666666667,-3.6938381666666662
1413393889580760576,-0.091455252804502868,-0.28064894372068816,0.096342174710086978,10.2969825,0.37592158333333331,-4.4211647083333325
1413393889585760512,-0.097040306410884708,-0.21013764194011728,0.022340214425527419,7.2160599583333331,-0.32688833333333334,-3.0564059166666664
1413393889590760448,-0.055152404363020817,-0.3490658503988659,0.047472955654245766,10.035471833333334,-0.88259849999999995,-4.2168595
1413393889595760384,-0.038397243543875248,-0.29251718263424964,0.0055850536063818549,9.4389006250000005,0.057205458333333334,-3.2361944999999999
1413393889600760576,-0.034208453339088861,-0.32742376767413622,0.0062831853071795866,10.607526416666667,0.46581587499999999,-4.9278416249999992
1413393889605760512,-0.067718774977379978,-0.22479840765686968,-0.019547687622336492,9.9128887083333321,1.3402421666666664,-2.6804843333333328
1413393889610760448,-0.11728612573401893,-0.29810223624063148,0.014660765716752367,10.705592916666665,0.36774937499999999,-4.5682644583333332
1413393889615760384,-0.11100294042683936,-0.1626646862858715,0.039793506945470715,9.7167557083333325,0.024516625,-2.582417833333333
1413393889620760576,-0.091455252804502868,-0.25202554398798116,0.048171087355043489,9.9455775416666654,-1.2176590416666666,-3.97169325
1413393889625760512,-0.02722713633111154,-0.21153390534171271,0.064926248174189058,9.4552450416666662,-0.38409379166666668,-2.8684451249999996
1413393889630760448,-0.016057029118347832,-0.24713862208239704,0.05305800926062762,10.591182,-0.47398808333333331,-4.2904093749999994
1413393889635760384,-0.020245819323134219,-0.22619467105846514,0.041887902047863905,8.5236132916666651,0.98883720833333322,-2.378112625
1413393889640760576,-0.087964594300514204,-0.30508355324860881,0.0013962634015954637,11.449263875,0.72732654166666666,-4.3721314583333335
1413393889645760512,-0.10471975511965977,-0.25691246589356531,0.02583087292951608,8.4500634166666657,1.1849702083333333,-2.10842975
1413393889650760448,-0.16545721308906244,-0.2457423586808016,-0.074700091985357306,12.478962124999999,-0.57205458333333326,-4.5192312083333332
1413393889655760384,-0.13264502315156904,-0.30159289474462014,-0.080983277292536876,8.9649125416666671,-0.36774937499999999,-3.3260887916666664
1413393889660760576,-0.12636183784438945,-0.17662732030182612,-0.1626646862858715,11.849702083333332,-0.83356525000000004,-3.5630828333333331
1413393889665760512,-0.072605696882964116,-0.20804324683772407,-0.11100294042683936,10.599354208333333,-0.38409379166666668,-3.5957716666666664
1413393889670760448,-0.093549647906896058,-0.1291543646475804,-0.15777776438028737,9.7576167499999986,0.5475379583333333,-4.666330958333333
1413393889675760384,-0.08237954069413235,-0.16126842288427606,-0.07958701389094143,10.411393416666668,0.61291562499999996,-2.7458620000000002
1413393889680760576,-0.11938052083641214,-0.1075122819228507,-0.069115038378975438,11.277647499999999,0.81722083333333329,-5.4998962083333325
1413393889685760512,-0.14241886696273731,-0.11309733552923257,-0.08377580409572781,9.7984777916666665,0.073549874999999987,-2.7295175833333332
1413393889690760448,-0.1340412865531645,-0.11170107212763709,-0.071209433481368656,10.901725916666665,-0.32688833333333334,-3.8164212916666664
1413393889695760384,-0.12147491593880534,-0.14451326206513049,-0.08168140899333462,10.149882749999998,-0.35957716666666667,-4.8788083749999993
1413393889700760576,-0.07819075048934597,-0.076794487087750496,-0.01117010721276371,8.4745800416666661,-0.36774937499999999,-2.3045627499999997
1413393889705760512,-0.061435589670200401,-0.18570303241219666,0.010471975511965976,11.22861425,-0.57205458333333326,-4.1514818333333334
1413393889710760448,-0.0097738438111682462,-0.17592918860102841,0.08168140899333462,8.1150028750000001,0.34323275000000003,-2.8929617499999996
1413393889715760384,-0.034906585039886591,-0.26529004630313807,0.05375614096142535,10.983448000000001,0.065377666666666667,-4.3312704166666665
1413393889720760576,-0.046076692252650306,-0.25132741228718347,0.033510321638291124,10.591182,1.0378704583333334,-2.9174783749999995
1413393889725760512,-0.11868238913561441,-0.28832839242946323,-0.05375614096142535,12.928433583333332,0.32688833333333334,-5.8513011666666666
1413393889730760448,-0.15707963267948966,-0.2436479635784084,-0.14032447186034408,8.5644743333333331,0.89077070833333327,-3.5058773749999999
1413393889735760384,-0.17941984710501704,-0.22759093446006054,-0.20036379812894903,10.6892485,-0.6292600416666666,-3.8000768749999998
1413393889740760576,-0.14940018397071461,-0.21223203704251048,-0.21153390534171271,13.124566583333333,-0.22064962499999999,-3.67749375
1413393889745760512,-0.12147491593880534,-0.08377580409572781,-0.22270401255447644,11.980457416666667,-0.95614837499999994,-3.1463002083333333
1413393889750760448,-0.11030480872604163,-0.12845623294678266,-0.18081611050661253,11.849702083333332,0.36774937499999999,-4.9687026666666672
1413393889755760384,-0.11100294042683936,-0.097040306410884708,-0.10332349171806432,9.3081452916666674,1.054214875,-3.906315583333333
1413393889760760576,-0.13683381335635544,-0.045378560551852569,-0.10192722831646883,10.672904083333334,0.10623870833333333,-2.7131731666666665
1413393889765760512,-0.11938052083641214,-0.11588986233242347,0.010471975511965976,11.718946750000001,0.196133,-4.8216029166666665
1413393889770760448,-0.11030480872604163,-0.10332349171806432,-0.0076794487087750501,9.3571785416666664,-0.71098212499999991,-4.3067537916666661
1413393889775760384,-0.05375614096142535,-0.095644043009289262,0.023038346126325153,10.640215249999999,-0.7028099166666667,-2.7295175833333332
1413393889780760576,-0.043982297150257102,-0.1270599695451872,-0.049567350756638949,10.885381500000001,-0.45764366666666667,-3.1544724166666662
1413393889785760512,-0.021642082724729686,-0.10122909661567112,-0.056548667764616284,12.993811249999998,0.43312704166666666,-4.5028867916666666
1413393889790760448,-0.067718774977379978,-0.069115038378975438,-0.11170107212763709,9.7249279166666671,0.58839899999999989,-3.2607111249999998
1413393889795760384,-0.098436569812480182,-0.1075122819228507,-0.098436569812480182,12.201107041666665,0.49850470833333332,-4.4048202916666659
1413393889800760576,-0.14102260356114182,-0.099832833214075656,-0.11170107212763709,9.8393388333333327,0.93163174999999998,-3.9635210416666666
1413393889805760512,-0.15009831567151233,-0.072605696882964116,-0.12356931104119852,9.6595502499999988,-0.45764366666666667,-3.4895329583333332
1413393889810760448,-0.13683381335635544,-0.19687313962496036,-0.10053096491487339,9.7657889583333333,-0.22064962499999999,-3.5303939999999998
1413393889815760384,-0.11588986233242347,-0.17174039839624203,-0.18989182261698306,11.081514499999999,-0.9398039583333333,-3.6529771249999996
1413393889820760576,-0.058643062867009467,-0.16545721308906244,-0.13962634015954636,12.201107041666665,0.016344416666666667,-4.5192312083333332
1413393889825760512,-0.090058989402907408,-0.17034413499464657,-0.20245819323134223,9.8638554583333331,0.35957716666666667,-4.1106207916666664
1413393889830760448,-0.092851516206098328,-0.091455252804502868,-0.1647590813882647,12.331862375,0.89894291666666659,-3.5058773749999999
1413393889835760384,-0.14521139376592823,-0.046774823953448029,-0.17313666179783749,11.490124916666666,0.6292600416666666,-3.6202882916666663
1413393889840760576,-0.15498523757709648,-0.030019663134302467,-0.15498523757709648,12.560684208333331,-0.22882183333333334,-4.9850470833333329
1413393889845760512,-0.14940018397071461,-0.023736477827122883,-0.13892820845874865,8.253930416666666,-0.13075533333333333,-3.2525389166666665
1413393889850760448,-0.08377580409572781,0.046774823953448029,-0.13753194505715316,12.094868333333332,-1.3974476249999999,-2.8194118749999997
1413393889855760384,-0.033510321638291124,-0.097040306410884708,-0.10332349171806432,12.773161624999998,-0.392266,-4.75622525
1413393889860760576,-0.029321531433504733,0.008377580409572781,-0.17732545200262387,8.9649125416666671,0.52302133333333334,-4.2822371666666665
1413393889865760512,-0.069115038378975438,-0.02583087292951608,-0.143116998663535,10.828176041666667,1.5854084166666664,-4.037070916666667
1413393889870760448,-0.16755160819145562,-0.0097738438111682462,-0.20943951023931953,10.730109541666666,1.0869037083333333,-2.9665116249999999
1413393889875760384,-0.20385445663293766,-0.023736477827122883,-0.20455258833373544,12.740472791666665,0.41678262500000002,-4.5600922500000003
1413393889880760576,-0.20176006153054449,0.0090757121103705145,-0.23038346126325149,9.1365289166666663,-0.72732654166666666,-4.1596540416666663
1413393889885760512,-0.12775810124598494,-0.0048869219055841231,-0.21642082724729686,10.877209291666667,-1.593580625,-3.881798958333333
1413393889890760448,-0.072605696882964116,0.018151424220741029,-0.21921335405048781,11.048825666666666,-0.58839899999999989,-2.6804843333333328
1413393889895760384,-0.05445427266222308,0.059341194567807204,-0.2241002759560719,12.732300583333332,0.024516625,-3.8164212916666664
1413393889900760576,-0.10122909661567112,0.061435589670200401,-0.20734511513692636,10.468598874999998,1.7897136249999999,-4.4538535416666667
1413393889905760512,-0.1647590813882647,0.16196655458507375,-0.21223203704251048,10.975275791666666,1.0460426666666667,-3.3996386666666667
1413393889910760448,-0.1884955592153876,0.1556833692778942,-0.1647590813882647,11.825185458333332,-0.11441091666666667,-4.1596540416666663
1413393889915760384,-0.18011797880581482,0.20734511513692636,-0.19896753472735357,9.3735229583333322,-1.1359369583333332,-2.8684451249999996
1413393889920760576,-0.067718774977379978,0.17592918860102841,-0.16824973989225336,11.473780499999998,-1.8142302499999998,-3.0155448749999998
1413393889925760512,-0.037699111843077518,0.1096066770252439,-0.18919369091618532,10.231604833333332,-0.34323275000000003,-3.7346992083333332
1413393889930760448,-0.029321531433504733,0.16406094968746698,-0.18221237390820799,10.346015749999999,0.71915433333333334,-4.396648083333333
1413393889935760384,-0.10262536001726656,0.10681415022205297,-0.18779742751458986,10.346015749999999,1.8142302499999998,-3.3015721666666664
1413393889940760576,-0.16336281798666924,0.2241002759560719,-0.17313666179783749,12.168418208333332,0.92345954166666655,-3.5140495833333332
1413393889945760512,-0.20036379812894903,0.18919369091618532,-0.19966566642815131,11.473780499999998,0.21247741666666667,-4.2086872916666662
1413393889950760448,-0.1626646862858715,0.26808257310632899,-0.22200588085367873,9.1447011249999992,-1.6589582916666665,-2.852100708333333
1413393889955760384,-0.099134701513277898,0.23317598806644241,-0.22689280275926282,11.563674791666667,-1.0378704583333334,-3.4813607499999994
1413393889960760576,-0.049567350756638949,0.25761059759436306,-0.22968532956245377,11.146892166666666,-0.58022679166666657,-3.9798654583333328
1413393889965760512,-0.071209433481368656,0.24434609527920614,-0.22479840765686968,9.0139457916666661,1.3075533333333333,-3.8409379166666664
1413393889970760448,-0.12496557444279401,0.20525072003453312,-0.22340214425527419,8.9158792916666663,1.5527195833333332,-2.6559677083333328
1413393889975760384,-0.17174039839624203,0.26668630970473356,-0.17732545200262387,11.759807791666667,0.17978858333333333,-3.7755602499999998
1413393889980760576,-0.20106192982974677,0.14241886696273731,-0.19757127132575814,9.8066499999999994,-0.10623870833333333,-4.2332039166666666
1413393889985760512,-0.13334315485236678,0.28274333882308139,-0.15219271077390556,9.8556832499999985,-1.5772362083333331,-2.6968287499999999
1413393889990760448,-0.085172067497323284,0.17523105690023066,-0.14521139376592823,11.890563124999998,-1.0296982499999998,-4.2985815833333332
1413393889995760384,-0.012566370614359173,0.33091442617812489,-0.10262536001726656,9.2754564583333323,-0.59657120833333332,-2.852100708333333
1413393890000760576,-0.032114058236695664,0.23806290997202653,-0.094247779607693802,12.241968083333333,0.68646550000000006,-3.857282333333333
1413393890005760512,-0.043284165449459372,0.3344050846821135,-0.08307767239493008,9.1201845000000006,0.71915433333333334,-2.9419949999999999
1413393890010760448,-0.099134701513277898,0.28623399732707,-0.069813170079773182,10.329671333333332,1.0623870833333333,-4.5846088749999998
1413393890015760384,-0.10890854532444616,0.28413960222467688,-0.046076692252650306,8.8014683749999989,-0.30237170833333332,-2.9665116249999999
1413393890020760576,-0.095644043009289262,0.28902652413026098,0.0034906585039886592,10.019127416666667,-0.55571016666666662,-3.7428714166666661
1413393890025760512,-0.048171087355043489,0.17941984710501704,0.067718774977379978,8.7115740833333319,-0.392266,-2.0757409166666667
1413393890030760448,0.012566370614359173,0.31555552876057474,0.092851516206098328,10.264293666666665,-0.65377666666666667,-3.67749375
1413393890035760384,0.032812189937493394,0.16615534478986016,0.13264502315156904,9.9374053333333343,0.38409379166666668,-3.3996386666666667
1413393890040760576,0.02722713633111154,0.32183871406775438,0.12845623294678266,9.831166624999998,0.098066500000000001,-3.1789890416666662
1413393890045760512,-0.00069813170079773186,0.15847589608108512,0.17243853009703977,9.4879338749999995,1.2340034583333332,-3.6121160833333334
1413393890050760448,-0.016057029118347832,0.27646015351590175,0.17941984710501704,9.7249279166666671,-0.098066500000000001,-2.4761791249999998
1413393890055760384,-0.036302848441482058,0.14451326206513049,0.18430676901060122,9.6350336250000002,0.073549874999999987,-4.1678262500000001
1413393890060760576,-0.0013962634015954637,0.24783675378319478,0.17872171540421936,9.1365289166666663,-0.71098212499999991,-2.6314510833333329
1413393890065760512,0.030019663134302467,0.14660765716752369,0.19966566642815131,10.484943291666665,-0.84173745833333324,-3.4813607499999994
1413393890070760448,0.063529984772593598,0.22549653935766736,0.18291050560900574,8.8014683749999989,-0.065377666666666667,-3.3751220416666667
1413393890075760384,0.080983277292536876,0.17802358370342161,0.25132741228718347,10.166227166666665,0.37592158333333331,-3.5303939999999998
1413393890080760576,0.063529984772593598,0.19966566642815131,0.2869321290278678,8.9485681249999995,0.58839899999999989,-3.342433208333333
1413393890085760512,0.031415926535897934,0.24155356847601517,0.3239331091701475,9.0793234583333327,0.22064962499999999,-3.342433208333333
1413393890090760448,0.031415926535897934,0.17104226669544431,0.33161255787892263,9.0139457916666661,0.016344416666666667,-2.6396232916666666
1413393890095760384,0.046076692252650306,0.2366666465704311,0.30927234345339516,9.9128887083333321,-0.77635979166666658,-3.3587776250000001
1413393890100760576,0.067020643276582248,0.18709929581379212,0.28483773392547462,8.744262916666667,-0.25333845833333329,-2.7622064166666664
1413393890105760512,0.067718774977379978,0.24853488548399255,0.2583087292951608,9.2918008749999998,-0.065377666666666667,-2.7703786249999998
1413393890110760448,0.058643062867009467,0.19128808601857852,0.2583087292951608,8.033280791666666,0.36774937499999999,-3.3832942499999996
1413393890115760384,0.039793506945470715,0.2722713633111154,0.25900686099595849,8.9730847499999999,0.48216029166666663,-2.8847895416666667
1413393890120760576,0.036302848441482058,0.19477874452256716,0.3008947630438224,7.0607879999999996,0.081722083333333334,-3.4241552916666667
1413393890125760512,0.045378560551852569,0.25691246589356531,0.31625366046137249,8.7115740833333319,-0.44129924999999998,-2.4108014583333333
1413393890130760448,0.055850536063818547,0.18709929581379212,0.3344050846821135,6.4233557499999998,-0.17161637500000002,-2.8602729166666667
1413393890135760384,0.07609635538695278,0.23736477827122882,0.28972465583105872,8.6461964166666672,-0.40861041666666664,-2.6314510833333329
1413393890140760576,0.072605696882964116,0.14800392056911915,0.30019663134302466,7.1261656666666662,0.057205458333333334,-2.5170401666666664
1413393890145760512,0.055152404363020817,0.21572269554649914,0.2778564169174973,9.6595502499999988,0.29419949999999995,-3.3260887916666664
1413393890150760448,0.043982297150257102,0.18779742751458986,0.27855454861829498,6.3743224999999999,0.71915433333333334,-2.1002575416666667
1413393890155760384,0.027925268031909273,0.21153390534171271,0.27855454861829498,8.2702748333333336,-0.122583125,-3.3506054166666663
1413393890160760576,0.02722713633111154,0.17662732030182612,0.28204520712228365,6.3988391249999994,0.18796079166666665,-1.2830367083333332
1413393890165760512,0.05445427266222308,0.19198621771937624,0.28832839242946323,9.3898673749999997,-1.0215260416666667,-3.4159830833333329
1413393890170760448,0.066322511575784518,0.16615534478986016,0.28553586562627226,5.2955909999999999,0.3105439166666667,-1.1522813749999998
1413393890175760384,0.087266462599716474,0.12426744274199628,0.31764992386296798,8.9158792916666663,-0.98066500000000001,-3.6693215416666662
1413393890180760576,0.067718774977379978,0.1647590813882647,0.2918190509334519,5.6061349166666661,0.80087641666666665,-1.1277647500000001
1413393890185760512,0.066322511575784518,0.061435589670200401,0.30508355324860881,9.7576167499999986,-0.31871612500000002,-4.0861041666666669
1413393890190760448,0.028623399732707,0.14241886696273731,0.2869321290278678,5.2383855416666663,1.2503478749999999,-1.0051816249999999
1413393890195760384,0.047472955654245766,0.094945911308491532,0.30857421175259747,10.051816249999998,-1.3974476249999999,-4.1351374166666668
1413393890200760576,0.037699111843077518,0.19408061282176942,0.24015730507441974,5.4508629583333326,0.72732654166666666,-0.89077070833333327
1413393890205760512,0.085172067497323284,0.072605696882964116,0.31764992386296798,8.9403959166666649,-1.2585200833333332,-3.4650163333333333
1413393890210760448,0.069115038378975438,0.22479840765686968,0.22828906616085831,6.7012108333333327,0.76001537499999994,-1.6426138750000001
1413393890215760384,0.099134701513277898,0.086568330898918744,0.34976398209966358,7.9515587083333328,-0.23699404166666665,-3.0482337083333335
