#timestamp [ns],w_RS_S_x [rad s^-1],w_RS_S_y [rad s^-1],w_RS_S_z [rad s^-1],a_RS_S_x [m s^-2],a_RS_S_y [m s^-2],a_RS_S_z [m s^-2]
1413394881575760384,0.020245819323134219,0.016755160819145562,0.086568330898918744,10.149882749999998,-0.024516625,-3.2035056666666666
1413394881580760576,0.020943951023931952,0.038397243543875248,0.085870199198121014,8.9240514999999991,0.14709974999999997,-2.4271458749999999
1413394881585760512,0.0090757121103705145,0.02583087292951608,0.092851516206098328,9.6268614166666655,0.17161637500000002,-2.8439284999999996
1413394881590760448,-0.014660765716752367,0.02652900463031381,0.093549647906896058,9.471589458333332,0.17978858333333333,-2.7458620000000002
1413394881595760384,-0.017453292519943295,0.032114058236695664,0.069813170079773182,9.0221180000000007,-0.22882183333333334,-2.3045627499999997
1413394881600760576,0.013962634015954637,0.017453292519943295,0.076794487087750496,9.9455775416666654,-0.87442629166666663,-2.8684451249999996
1413394881605760512,0.024434609527920613,-0.0020943951023931952,0.050963614158234416,8.9403959166666649,-0.32688833333333334,-2.4353180833333332
1413394881610760448,0.048869219055841226,0.029321531433504733,0.071209433481368656,9.9047164999999993,0.17978858333333333,-3.0155448749999998
1413394881615760384,-0.0020943951023931952,0.05375614096142535,0.05375614096142535,9.3408341249999989,1.1849702083333333,-2.7867230416666664
1413394881620760576,-0.055152404363020817,0.0153588974175501,0.088662726001311934,8.7769517500000003,1.2094868333333333,-2.5905900416666663
1413394881625760512,-0.095644043009289262,0.030019663134302467,0.07749261878854824,9.822994416666667,0.10623870833333333,-2.7213453750000003
1413394881630760448,-0.070511301780570912,0.016755160819145562,0.10611601852125524,9.3490063333333335,-1.1195925416666666,-2.7376897916666665
1413394881635760384,-0.018849555921538759,0.027925268031909273,0.084473935796525554,8.7851239583333331,-1.4791697083333333,-2.378112625
1413394881640760576,0.048171087355043489,-0.01117010721276371,0.10122909661567112,9.9700941666666658,-1.1522813749999998,-2.6559677083333328
1413394881645760512,0.07609635538695278,0.034906585039886591,0.085870199198121014,9.5614837499999989,-0.14709974999999997,-2.852100708333333
1413394881650760448,0.060737457969402671,0.044680428851054839,0.10053096491487339,9.0711512499999998,0.5475379583333333,-2.132946375
1413394881655760384,0.02583087292951608,-0.019547687622336492,0.087964594300514204,10.869037083333334,0.032688833333333334,-3.4977051666666665
1413394881660760576,-0.00069813170079773186,0.087266462599716474,0.046076692252650306,8.5889909583333335,0.098066500000000001,-2.1411185833333333
1413394881665760512,-0.0090757121103705145,0.032812189937493394,0.055152404363020817,9.2999730833333327,0.20430520833333332,-2.6396232916666666
1413394881670760448,-0.024434609527920613,0.0076794487087750501,0.080285145591739146,10.084505083333333,0.59657120833333332,-3.2198500833333328
1413394881675760384,-0.068416906678177722,0.060039326268604934,0.080285145591739146,8.5481299166666673,0.80904862499999997,-2.3127349583333334
1413394881680760576,-0.087964594300514204,-0.0048869219055841231,0.12426744274199628,9.2999730833333327,0.40043820833333332,-2.8929617499999996
1413394881685760512,-0.069115038378975438,0.029321531433504733,0.12077678423800758,9.6513780416666659,-1.299381125,-2.582417833333333
1413394881690760448,0.0,0.010471975511965976,0.080285145591739146,8.7360907083333323,-2.1247741666666666,-2.0103632499999997
1413394881695760384,0.090757121103705138,-0.038397243543875248,0.052359877559829883,10.100849499999999,-2.0021910416666664,-2.852100708333333
1413394881700760576,0.1626646862858715,0.039793506945470715,0.065624379874986788,10.24794925,-0.53936574999999998,-2.8684451249999996
1413394881705760512,0.1270599695451872,0.064228116473391328,0.039095375244672985,8.7769517500000003,2.0348798749999997,-2.4925235416666665
1413394881710760448,0.0307177948351002,0.0,0.08168140899333462,9.8475110416666656,2.9338227916666666,-3.0400614999999998
1413394881715760384,-0.084473935796525554,0.084473935796525554,0.072605696882964116,10.166227166666665,1.3402421666666664,-2.9583394166666666
1413394881720760576,-0.16126842288427606,0.02583087292951608,0.11519173063162574,7.7145646666666661,0.24516625,-2.288218333333333
1413394881725760512,-0.13473941825396224,0.02722713633111154,0.098436569812480182,9.8883720833333317,-1.5527195833333332,-2.6559677083333328
1413394881730760448,-0.043982297150257102,-0.0076794487087750501,0.086568330898918744,9.2100787916666658,-2.2473572916666664,-2.557901208333333
1413394881735760384,0.060039326268604934,0.022340214425527419,0.076794487087750496,9.1365289166666663,-1.9286411666666665,-2.3535959999999996
1413394881740760576,0.11170107212763709,-0.039095375244672985,0.07749261878854824,9.9455775416666654,-0.34323275000000003,-3.1871612499999999
1413394881745760512,0.10122909661567112,0.067718774977379978,0.050265482457436693,9.5042782916666653,0.46581587499999999,-2.4843513333333336
1413394881750760448,0.057246799465414,0.014660765716752367,0.071907565182166372,9.4062117916666654,1.0787315,-2.9256505833333333
1413394881755760384,0.0076794487087750501,0.045378560551852569,0.062831853071795868,9.831166624999998,0.62108783333333339,-2.9419949999999999
1413394881760760576,-0.040491638646268438,0.080983277292536876,0.069813170079773182,9.1447011249999992,0.80087641666666665,-2.3862848333333333
1413394881765760512,-0.067020643276582248,0.0076794487087750501,0.089360857702109678,9.1365289166666663,0.22064962499999999,-2.5905900416666663
1413394881770760448,-0.075398223686155036,0.023038346126325153,0.098436569812480182,9.9210609166666668,-0.057205458333333334,-3.0400614999999998
1413394881775760384,-0.064926248174189058,0.045378560551852569,0.094945911308491532,8.883190458333333,-0.62108783333333339,-2.2391850833333331
1413394881780760576,-0.042586033748661642,-0.031415926535897934,0.089360857702109678,9.4062117916666654,-0.71098212499999991,-2.7785508333333331
1413394881785760512,0.0069813170079773184,0.05166174585903216,0.065624379874986788,9.8393388333333327,-1.3402421666666664,-2.7295175833333332
1413394881790760448,0.046076692252650306,0.011868238913561441,0.085172067497323284,8.8423294166666651,-0.77635979166666658,-2.4026292499999999
1413394881795760384,0.085172067497323284,0.0062831853071795866,0.10053096491487339,9.994610791666668,-0.38409379166666668,-3.138128
1413394881800760576,0.069813170079773182,0.060737457969402671,0.071209433481368656,9.2672842499999994,0.26968287499999999,-1.7815414166666665
1413394881805760512,0.045378560551852569,0.034208453339088861,0.10262536001726656,9.8556832499999985,0.76818758333333337,-3.0972669583333334
1413394881810760448,-0.0153588974175501,0.0,0.062133721370998138,8.3274802916666655,0.97249279166666658,-2.557901208333333
1413394881815760384,-0.057944931166211737,0.041887902047863905,0.085172067497323284,9.8883720833333317,0.53119354166666666,-3.0400614999999998
1413394881820760576,-0.086568330898918744,0.023038346126325153,0.086568330898918744,8.7769517500000003,-0.024516625,-2.4026292499999999
1413394881825760512,-0.075398223686155036,-0.0076794487087750501,0.086568330898918744,10.059988458333333,-0.8253930416666666,-3.0727503333333335
1413394881830760448,-0.021642082724729686,0.080285145591739146,0.080285145591739146,8.9812569583333328,-1.1114203333333332,-1.9776744166666664
1413394881835760384,0.031415926535897934,-0.030019663134302467,0.088662726001311934,9.6268614166666655,-1.0623870833333333,-3.1136113750000001
1413394881840760576,0.057944931166211737,0.038397243543875248,0.056548667764616284,9.0221180000000007,-0.43312704166666666,-2.1738074166666665
1413394881845760512,0.076794487087750496,0.013962634015954637,0.080983277292536876,9.6513780416666659,0.10623870833333333,-2.9338227916666666
1413394881850760448,0.064926248174189058,0.037000980142279788,0.070511301780570912,9.2672842499999994,0.52302133333333334,-2.8357562916666668
1413394881855760384,0.0027925268031909274,0.036302848441482058,0.072605696882964116,9.6677224583333334,0.90711512499999991,-2.7131731666666665
1413394881860760576,-0.039793506945470715,0.016755160819145562,0.091455252804502868,9.7004112916666649,0.87442629166666663,-3.1217835833333334
1413394881865760512,-0.069813170079773182,0.086568330898918744,0.089360857702109678,8.5563021250000002,0.31871612500000002,-2.0021910416666664
1413394881870760448,-0.088662726001311934,-0.028623399732707,0.078888882190143686,9.9455775416666654,-0.78453200000000001,-3.0564059166666664
1413394881875760384,-0.045378560551852569,0.016057029118347832,0.087964594300514204,9.9047164999999993,-0.87442629166666663,-2.8602729166666667
1413394881880760576,0.0034906585039886592,0.037699111843077518,0.070511301780570912,8.4255467916666653,-0.98066500000000001,-1.7488525833333333
1413394881885760512,0.043284165449459372,0.0153588974175501,0.094247779607693802,10.329671333333332,-0.66194887499999999,-3.5712550416666669
1413394881890760448,0.05166174585903216,-0.0076794487087750501,0.065624379874986788,8.2784470416666665,-0.04903325,-1.5608917916666667
1413394881895760384,0.050265482457436693,0.050963614158234416,0.091455252804502868,10.909898125,0.11441091666666667,-3.8164212916666664
1413394881900760576,0.010471975511965976,0.022340214425527419,0.050265482457436693,8.7197462916666666,0.25333845833333329,-2.0430520833333334
1413394881905760512,0.0090757121103705145,0.016057029118347832,0.099832833214075656,9.2019065833333329,0.5475379583333333,-2.9093061666666666
1413394881910760448,-0.014660765716752367,0.068416906678177722,0.087266462599716474,9.7412723333333329,0.065377666666666667,-2.7376897916666665
1413394881915760384,-0.048869219055841226,-0.0055850536063818549,0.072605696882964116,8.6461964166666672,0.30237170833333332,-2.2718739166666664
1413394881920760576,-0.034906585039886591,0.030019663134302467,0.10192722831646883,9.8475110416666656,-0.073549874999999987,-2.7131731666666665
1413394881925760512,-0.036302848441482058,0.020245819323134219,0.097040306410884708,9.4143839999999983,-0.25333845833333329,-2.4925235416666665
1413394881930760448,-0.033510321638291124,0.021642082724729686,0.075398223686155036,8.9158792916666663,-0.48216029166666663,-2.5742456250000001
1413394881935760384,0.0097738438111682462,0.032812189937493394,0.08377580409572781,9.831166624999998,-0.86625408333333331,-2.5170401666666664
1413394881940760576,0.048869219055841226,0.018849555921538759,0.085172067497323284,9.5124504999999999,-0.77635979166666658,-2.803067458333333
1413394881945760512,0.059341194567807204,0.023736477827122883,0.074700091985357306,9.1610455416666667,-0.073549874999999987,-2.5415567916666664
1413394881950760448,0.05375614096142535,0.018849555921538759,0.085870199198121014,9.332661916666666,0.4494714583333333,-2.4108014583333333
1413394881955760384,0.019547687622336492,0.025132741228718346,0.091455252804502868,9.6513780416666659,0.80904862499999997,-2.9828560416666661
1413394881960760576,-0.039793506945470715,0.016755160819145562,0.070511301780570912,9.4062117916666654,0.97249279166666658,-2.7458620000000002
1413394881965760512,-0.080285145591739146,0.020943951023931952,0.087964594300514204,10.043644041666665,0.56388237500000005,-3.0809225416666663
1413394881970760448,-0.085172067497323284,0.058643062867009467,0.084473935796525554,9.1447011249999992,-0.4494714583333333,-2.557901208333333
1413394881975760384,-0.036302848441482058,0.023038346126325153,0.087964594300514204,8.834157208333334,-1.7079915416666664,-2.4189736666666666
1413394881980760576,0.040491638646268438,-0.0055850536063818549,0.085870199198121014,9.471589458333332,-1.2830367083333332,-2.5252123749999997
1413394881985760512,0.090058989402907408,0.0048869219055841231,0.090757121103705138,9.9864385833333333,0.098066500000000001,-2.9011339583333333
1413394881990760448,0.043982297150257102,0.02583087292951608,0.066322511575784518,9.7494445416666657,1.1032481249999999,-3.1789890416666662
1413394881995760384,-0.013264502315156905,0.040491638646268438,0.070511301780570912,8.9894291666666657,1.0705592916666666,-2.4516624999999999
1413394882000760576,-0.05375614096142535,0.030019663134302467,0.072605696882964116,9.5533115416666661,0.13075533333333333,-2.6151066666666667
1413394882005760512,-0.048869219055841226,0.02652900463031381,0.057944931166211737,9.3816951666666668,-0.67829329166666663,-2.3862848333333333
1413394882010760448,-0.0062831853071795866,0.018151424220741029,0.08377580409572781,9.5614837499999989,-0.78453200000000001,-2.827584083333333
1413394882015760384,0.019547687622336492,0.027925268031909273,0.10471975511965977,9.0302902083333318,-0.24516625,-2.5088679583333335
1413394882020760576,0.018849555921538759,0.017453292519943295,0.11239920382843484,9.4470728333333334,0.16344416666666667,-2.7540342083333331
1413394882025760512,-0.0062831853071795866,0.0307177948351002,0.080983277292536876,9.5206227083333328,0.21247741666666667,-2.5497290000000001
1413394882030760448,-0.016755160819145562,0.012566370614359173,0.075398223686155036,9.3735229583333322,-0.18796079166666665,-2.8357562916666668
1413394882035760384,-0.008377580409572781,0.029321531433504733,0.061435589670200401,9.2591120416666666,-0.66194887499999999,-2.4761791249999998
1413394882040760576,0.008377580409572781,0.017453292519943295,0.071209433481368656,9.3735229583333322,-0.36774937499999999,-2.7540342083333331
1413394882045760512,0.0153588974175501,0.0062831853071795866,0.086568330898918744,9.3653507499999993,0.26151066666666667,-2.7376897916666665
1413394882050760448,0.008377580409572781,0.037000980142279788,0.10471975511965977,9.7903055833333319,0.29419949999999995,-2.7213453750000003
1413394882055760384,-0.011868238913561441,0.036302848441482058,0.093549647906896058,9.3816951666666668,0.196133,-2.6968287499999999
1413394882060760576,-0.022340214425527419,0.029321531433504733,0.10122909661567112,9.5206227083333328,0.17978858333333333,-2.7295175833333332
1413394882065760512,-0.040491638646268438,0.02583087292951608,0.068416906678177722,9.2918008749999998,-0.23699404166666665,-2.4598347083333332
1413394882070760448,-0.02652900463031381,0.01117010721276371,0.070511301780570912,9.5451393333333332,-0.65377666666666667,-2.6723121249999999
1413394882075760384,0.018849555921538759,0.023736477827122883,0.074700091985357306,9.3571785416666664,-1.0296982499999998,-2.378112625
1413394882080760576,0.055152404363020817,0.023736477827122883,0.08307767239493008,9.4470728333333334,-0.63743225000000003,-2.7622064166666664
1413394882085760512,0.063529984772593598,0.019547687622336492,0.087964594300514204,9.3653507499999993,0.32688833333333334,-2.8439284999999996
1413394882090760448,0.034208453339088861,0.037000980142279788,0.087266462599716474,9.6595502499999988,1.1522813749999998,-2.7050009583333332
1413394882095760384,-0.035604716740684328,0.02652900463031381,0.084473935796525554,9.1365289166666663,1.3892754166666665,-2.6641399166666666
1413394882100760576,-0.10332349171806432,0.017453292519943295,0.087964594300514204,9.1201845000000006,0.5475379583333333,-2.557901208333333
1413394882105760512,-0.10402162341886204,0.0153588974175501,0.099134701513277898,9.4307284166666658,-0.77635979166666658,-2.5660734166666663
1413394882110760448,-0.034208453339088861,-0.00069813170079773186,0.10053096491487339,9.6840668749999992,-1.9122967499999999,-2.7295175833333332
1413394882115760384,0.043284165449459372,0.018849555921538759,0.085172067497323284,9.2672842499999994,-1.6262694583333333,-2.3127349583333334
1413394882120760576,0.094945911308491532,0.029321531433504733,0.086568330898918744,9.5614837499999989,-0.45764366666666667,-2.7213453750000003
1413394882125760512,0.089360857702109678,0.0097738438111682462,0.074700091985357306,9.242767624999999,0.48216029166666663,-2.582417833333333
1413394882130760448,0.045378560551852569,0.022340214425527419,0.068416906678177722,9.7984777916666665,0.89894291666666659,-2.8766173333333334
1413394882135760384,-0.01117010721276371,0.030019663134302467,0.058643062867009467,9.3408341249999989,0.98066500000000001,-2.6477955
1413394882140760576,-0.050963614158234416,0.02583087292951608,0.086568330898918744,9.0139457916666661,0.66194887499999999,-2.9419949999999999
1413394882145760512,-0.08168140899333462,0.033510321638291124,0.099832833214075656,9.2672842499999994,0.0,-2.5742456250000001
1413394882150760448,-0.080285145591739146,0.0041887902047863905,0.10053096491487339,9.4879338749999995,-0.67829329166666663,-2.803067458333333
1413394882155760384,-0.029321531433504733,0.021642082724729686,0.094945911308491532,9.5451393333333332,-1.2340034583333332,-2.5088679583333335
1413394882160760576,0.032114058236695664,0.0090757121103705145,0.085172067497323284,9.2999730833333327,-1.593580625,-2.5660734166666663
1413394882165760512,0.089360857702109678,0.0097738438111682462,0.055850536063818547,9.4797616666666666,-1.32389775,-2.5006957499999998
1413394882170760448,0.12845623294678266,0.01117010721276371,0.057246799465414,9.6105169999999998,-0.16344416666666667,-2.557901208333333
1413394882175760384,0.099832833214075656,0.022340214425527419,0.067020643276582248,9.8148222083333323,1.2176590416666666,-3.1136113750000001
1413394882180760576,0.011868238913561441,0.05305800926062762,0.084473935796525554,9.1773899583333325,2.1002575416666667,-2.6968287499999999
1413394882185760512,-0.089360857702109678,0.037000980142279788,0.1096066770252439,9.2345954166666662,1.8142302499999998,-2.8357562916666668
1413394882190760448,-0.16057029118347829,0.032812189937493394,0.11170107212763709,9.3081452916666674,0.58839899999999989,-2.8929617499999996
1413394882195760384,-0.15428710587629874,0.033510321638291124,0.094247779607693802,9.2754564583333323,-1.7406803749999997,-2.4434902916666665
1413394882200760576,-0.05166174585903216,-0.00069813170079773186,0.087266462599716474,9.2999730833333327,-2.6396232916666666,-2.4434902916666665
1413394882205760512,0.069115038378975438,-0.0041887902047863905,0.073303828583761846,9.5206227083333328,-2.1411185833333333,-2.5905900416666663
1413394882210760448,0.15358897417550099,0.014660765716752367,0.065624379874986788,9.471589458333332,-0.41678262500000002,-2.6641399166666666
1413394882215760384,0.13334315485236678,0.020245819323134219,0.067718774977379978,10.059988458333333,1.1767979999999998,-3.1953334583333328
1413394882220760576,0.042586033748661642,0.056548667764616284,0.067020643276582248,9.2999730833333327,1.8632635,-2.6151066666666667
1413394882225760512,-0.048171087355043489,0.052359877559829883,0.07819075048934597,9.3081452916666674,1.4464808749999998,-2.7540342083333331
1413394882230760448,-0.11030480872604163,0.046076692252650306,0.087266462599716474,9.0956678750000002,0.57205458333333326,-2.6723121249999999
1413394882235760384,-0.10890854532444616,0.013962634015954637,0.10192722831646883,8.9976013749999986,-0.26968287499999999,-2.5905900416666663
1413394882240760576,-0.074001960284559576,0.0153588974175501,0.10262536001726656,9.5614837499999989,-0.84990966666666667,-2.7703786249999998
1413394882245760512,-0.027925268031909273,-0.0048869219055841231,0.1054178868204575,9.4143839999999983,-0.97249279166666658,-2.6723121249999999
1413394882250760448,0.012566370614359173,0.0097738438111682462,0.074700091985357306,9.6840668749999992,-0.99700941666666665,-2.7050009583333332
1413394882255760384,0.05375614096142535,0.023038346126325153,0.060039326268604934,9.4552450416666662,-0.75184316666666662,-2.2800461250000001
1413394882260760576,0.092153384505300612,-0.0020943951023931952,0.072605696882964116,9.7004112916666649,-0.61291562499999996,-3.0073726666666665
1413394882265760512,0.07609635538695278,0.055850536063818547,0.055850536063818547,9.6595502499999988,0.40043820833333332,-2.4680069166666665
1413394882270760448,0.048171087355043489,0.027925268031909273,0.094945911308491532,9.4634172499999991,1.1032481249999999,-2.9093061666666666
1413394882275760384,-0.016755160819145562,0.060039326268604934,0.088662726001311934,9.4470728333333334,1.3484143749999999,-2.9419949999999999
1413394882280760576,-0.086568330898918744,0.035604716740684328,0.091455252804502868,8.9894291666666657,1.1032481249999999,-2.5333845833333335
1413394882285760512,-0.1096066770252439,0.014660765716752367,0.087266462599716474,9.6186892083333326,-0.057205458333333334,-3.0890947499999997
1413394882290760448,-0.097040306410884708,0.021642082724729686,0.085870199198121014,8.572646541666666,-1.0215260416666667,-2.2963905416666663
1413394882295760384,-0.040491638646268438,0.010471975511965976,0.061435589670200401,9.6186892083333326,-1.6671305000000001,-2.7540342083333331
1413394882300760576,0.045378560551852569,-0.033510321638291124,0.089360857702109678,8.8668460416666655,-1.5036863333333332,-2.6641399166666666
1413394882305760512,0.10402162341886204,0.033510321638291124,0.087964594300514204,9.8801998750000006,-0.63743225000000003,-2.7458620000000002
1413394882310760448,0.11798425743481668,0.029321531433504733,0.098436569812480182,9.2591120416666666,0.71098212499999991,-2.5170401666666664
1413394882315760384,0.058643062867009467,0.034906585039886591,0.087266462599716474,9.8393388333333327,1.3075533333333333,-3.1136113750000001
1413394882320760576,-0.020943951023931952,0.057944931166211737,0.064926248174189058,9.0384624166666665,1.1931424166666666,-2.2637017083333331
1413394882325760512,-0.073303828583761846,0.0,0.07609635538695278,9.4062117916666654,0.68646550000000006,-2.9910282499999998
1413394882330760448,-0.10262536001726656,0.05445427266222308,0.078888882190143686,9.3816951666666668,-0.032688833333333334,-2.6723121249999999
1413394882335760384,-0.087266462599716474,-0.0027925268031909274,0.097040306410884708,8.8668460416666655,-0.81722083333333329,-2.7376897916666665
1413394882340760576,-0.032812189937493394,0.018849555921538759,0.099134701513277898,9.8393388333333327,-1.3484143749999999,-2.7785508333333331
1413394882345760512,0.013962634015954637,0.0307177948351002,0.08377580409572781,9.3571785416666664,-1.1604535833333331,-2.4108014583333333
1413394882350760448,0.067718774977379978,0.013962634015954637,0.07609635538695278,9.7984777916666665,-0.4494714583333333,-3.0237170833333331
1413394882355760384,0.072605696882964116,0.018849555921538759,0.071907565182166372,9.0139457916666661,-0.098066500000000001,-2.6968287499999999
1413394882360760576,0.041887902047863905,0.037000980142279788,0.056548667764616284,9.1120122916666659,0.73549874999999998,-2.5497290000000001
1413394882365760512,0.018151424220741029,0.0097738438111682462,0.075398223686155036,9.9619219583333329,0.42495483333333334,-3.1463002083333333
1413394882370760448,-0.023038346126325153,0.052359877559829883,0.075398223686155036,8.9567403333333324,0.35957716666666667,-2.4598347083333332
1413394882375760384,-0.033510321638291124,0.02583087292951608,0.11588986233242347,9.5860003749999994,0.4903325,-2.9910282499999998
1413394882380760576,-0.043982297150257102,0.027925268031909273,0.10122909661567112,9.3081452916666674,-0.27785508333333331,-2.6723121249999999
1413394882385760512,-0.048171087355043489,0.041887902047863905,0.074700091985357306,8.9485681249999995,-0.40043820833333332,-2.1166019583333333
1413394882390760448,-0.0048869219055841231,-0.020245819323134219,0.10122909661567112,9.6513780416666659,-0.44129924999999998,-2.9828560416666661
1413394882395760384,0.0,0.029321531433504733,0.069115038378975438,9.5287949166666657,-0.55571016666666662,-2.5333845833333335
1413394882400760576,0.0034906585039886592,0.0048869219055841231,0.064926248174189058,9.332661916666666,-0.17978858333333333,-2.6723121249999999
1413394882405760512,0.034906585039886591,0.022340214425527419,0.07819075048934597,9.6595502499999988,-0.50667691666666659,-2.6151066666666667
1413394882410760448,0.041189770347066175,0.057944931166211737,0.074001960284559576,9.2754564583333323,0.0081722083333333334,-2.5905900416666663
1413394882415760384,0.039793506945470715,0.011868238913561441,0.10402162341886204,9.6595502499999988,0.68646550000000006,-2.827584083333333
1413394882420760576,-0.010471975511965976,0.036302848441482058,0.064228116473391328,9.5696559583333336,0.34323275000000003,-2.5905900416666663
1413394882425760512,-0.0307177948351002,0.037699111843077518,0.076794487087750496,8.9158792916666663,0.22064962499999999,-2.623278875
1413394882430760448,-0.034208453339088861,-0.0020943951023931952,0.092153384505300612,9.1773899583333325,-0.122583125,-2.5660734166666663
1413394882435760384,-0.043982297150257102,0.023038346126325153,0.057944931166211737,9.6350336250000002,-0.53119354166666666,-2.6804843333333328
1413394882440760576,-0.013962634015954637,0.011868238913561441,0.10053096491487339,9.3244897083333331,-0.31871612500000002,-2.9174783749999995
1413394882445760512,0.01117010721276371,0.0307177948351002,0.092153384505300612,10.002782999999999,-0.61291562499999996,-2.7131731666666665
1413394882450760448,0.014660765716752367,0.038397243543875248,0.074700091985357306,8.9812569583333328,-0.30237170833333332,-2.4108014583333333
1413394882455760384,0.025132741228718346,0.013962634015954637,0.086568330898918744,9.2345954166666662,0.17161637500000002,-2.557901208333333
1413394882460760576,0.0090757121103705145,0.0153588974175501,0.074700091985357306,9.2918008749999998,-0.024516625,-2.3699404166666667
1413394882465760512,-0.0090757121103705145,0.0,0.071907565182166372,10.010955208333332,0.31871612500000002,-3.1463002083333333
1413394882470760448,-0.010471975511965976,0.024434609527920613,0.097738438111682452,9.4961060833333324,0.22064962499999999,-2.7376897916666665
1413394882475760384,-0.039793506945470715,0.039793506945470715,0.095644043009289262,9.0793234583333327,0.10623870833333333,-2.6968287499999999
1413394882480760576,-0.037699111843077518,0.02722713633111154,0.099832833214075656,9.6758946666666663,-0.26968287499999999,-2.7785508333333331
1413394882485760512,-0.011868238913561441,0.020245819323134219,0.078888882190143686,9.5287949166666657,-0.98066500000000001,-2.5660734166666663
1413394882490760448,0.020245819323134219,0.052359877559829883,0.059341194567807204,9.4797616666666666,-0.60474341666666664,-2.6151066666666667
1413394882495760384,0.040491638646268438,-0.0041887902047863905,0.065624379874986788,8.9403959166666649,-0.25333845833333329,-2.4026292499999999
1413394882500760576,0.044680428851054839,0.02722713633111154,0.05166174585903216,9.7494445416666657,-0.22882183333333334,-2.8112396666666668
1413394882505760512,0.044680428851054839,0.016755160819145562,0.067020643276582248,9.2918008749999998,0.073549874999999987,-2.4925235416666665
1413394882510760448,0.037699111843077518,0.018151424220741029,0.073303828583761846,9.5206227083333328,0.37592158333333331,-3.0073726666666665
1413394882515760384,0.0069813170079773184,0.05305800926062762,0.07958701389094143,8.9730847499999999,0.71915433333333334,-2.3045627499999997
1413394882520760576,-0.037000980142279788,-0.0069813170079773184,0.099832833214075656,9.422556208333333,1.0378704583333334,-3.2280222916666665
1413394882525760512,-0.092851516206098328,0.037699111843077518,0.085870199198121014,9.5042782916666653,0.57205458333333326,-2.7295175833333332
1413394882530760448,-0.10821041362364843,0.040491638646268438,0.10890854532444616,9.0793234583333327,-0.3105439166666667,-2.6968287499999999
1413394882535760384,-0.069813170079773182,0.01117010721276371,0.099832833214075656,9.4470728333333334,-1.6344416666666666,-2.6641399166666666
1413394882540760576,0.019547687622336492,0.0153588974175501,0.094247779607693802,9.2182509999999986,-2.0348798749999997,-2.2146684583333331
1413394882545760512,0.11309733552923257,0.016057029118347832,0.078888882190143686,9.4797616666666666,-1.7406803749999997,-2.6886565416666666
1413394882550760448,0.1556833692778942,0.0055850536063818549,0.060737457969402671,9.4307284166666658,-0.42495483333333334,-2.3617682083333333
1413394882555760384,0.12566370614359174,0.020943951023931952,0.07609635538695278,9.9619219583333329,1.5363751666666667,-3.0727503333333335
1413394882560760576,0.017453292519943295,0.048171087355043489,0.070511301780570912,9.5533115416666661,2.3127349583333334,-3.0155448749999998
1413394882565760512,-0.10332349171806432,0.047472955654245766,0.069813170079773182,9.3490063333333335,1.8060580416666667,-2.8929617499999996
1413394882570760448,-0.15638150097869194,0.039793506945470715,0.089360857702109678,9.2345954166666662,0.21247741666666667,-2.6151066666666667
1413394882575760384,-0.13055062804917586,0.02722713633111154,0.085870199198121014,8.9322237083333338,-1.6262694583333333,-2.3699404166666667
1413394882580760576,-0.048869219055841226,-0.0027925268031909274,0.085870199198121014,9.2591120416666666,-1.8469190833333331,-2.3535959999999996
1413394882585760512,0.050265482457436693,-0.008377580409572781,0.094945911308491532,9.6922390833333321,-1.2421756666666668,-2.7295175833333332
1413394882590760448,0.090058989402907408,0.020245819323134219,0.090757121103705138,9.6677224583333334,-0.32688833333333334,-2.557901208333333
1413394882595760384,0.08237954069413235,0.019547687622336492,0.087266462599716474,9.6350336250000002,0.41678262500000002,-2.7050009583333332
1413394882600760576,0.041189770347066175,0.035604716740684328,0.067718774977379978,9.5451393333333332,0.5475379583333333,-2.6314510833333329
1413394882605760512,0.010471975511965976,0.034208453339088861,0.067718774977379978,9.2509398333333337,0.4903325,-2.4353180833333332
1413394882610760448,-0.018151424220741029,0.020943951023931952,0.076794487087750496,9.5614837499999989,0.40861041666666664,-2.9419949999999999
1413394882615760384,-0.046774823953448029,0.039095375244672985,0.08377580409572781,9.4389006250000005,0.50667691666666659,-2.7785508333333331
1413394882620760576,-0.065624379874986788,0.038397243543875248,0.094247779607693802,9.2672842499999994,0.15527195833333335,-2.7131731666666665
1413394882625760512,-0.055152404363020817,0.023736477827122883,0.092153384505300612,9.2999730833333327,-0.58839899999999989,-2.6477955
1413394882630760448,-0.020943951023931952,0.017453292519943295,0.07609635538695278,9.1038400833333331,-0.7436709583333333,-2.3209071666666663
1413394882635760384,0.0076794487087750501,-0.0048869219055841231,0.059341194567807204,9.4307284166666658,-0.6701210833333332,-2.7295175833333332
1413394882640760576,0.043982297150257102,0.0027925268031909274,0.067020643276582248,9.6677224583333334,-0.60474341666666664,-2.6151066666666667
1413394882645760512,0.057944931166211737,0.016755160819145562,0.069813170079773182,9.6105169999999998,-0.18796079166666665,-2.803067458333333
1413394882650760448,0.040491638646268438,0.025132741228718346,0.078888882190143686,9.3735229583333322,0.40861041666666664,-2.7213453750000003
1413394882655760384,0.0090757121103705145,0.033510321638291124,0.084473935796525554,9.6023447916666651,0.73549874999999998,-2.8929617499999996
1413394882660760576,-0.0307177948351002,0.047472955654245766,0.076794487087750496,9.5451393333333332,0.40043820833333332,-2.827584083333333
1413394882665760512,-0.045378560551852569,0.046076692252650306,0.07958701389094143,9.3653507499999993,0.24516625,-2.7131731666666665
1413394882670760448,-0.050265482457436693,0.030019663134302467,0.07609635538695278,9.1610455416666667,-0.26151066666666667,-2.5333845833333335
1413394882675760384,-0.037699111843077518,0.025132741228718346,0.07958701389094143,9.2100787916666658,-0.49850470833333332,-2.5497290000000001
1413394882680760576,-0.0048869219055841231,0.014660765716752367,0.094945911308491532,9.5614837499999989,-0.84990966666666667,-2.6151066666666667
1413394882685760512,0.024434609527920613,0.013264502315156905,0.094247779607693802,9.594172583333334,-0.73549874999999998,-2.6641399166666666
1413394882690760448,0.039793506945470715,0.021642082724729686,0.076794487087750496,9.3408341249999989,-0.36774937499999999,-2.5742456250000001
1413394882695760384,0.039095375244672985,0.014660765716752367,0.073303828583761846,9.5451393333333332,0.17161637500000002,-2.8439284999999996
1413394882700760576,0.027925268031909273,0.034906585039886591,0.07819075048934597,9.5206227083333328,0.4494714583333333,-2.7131731666666665
1413394882705760512,0.0013962634015954637,0.028623399732707,0.08168140899333462,9.4879338749999995,0.42495483333333334,-2.8112396666666668
1413394882710760448,-0.024434609527920613,0.043284165449459372,0.08168140899333462,9.2672842499999994,0.30237170833333332,-2.5415567916666664
1413394882715760384,-0.037000980142279788,0.022340214425527419,0.091455252804502868,9.0793234583333327,0.065377666666666667,-2.5006957499999998
1413394882720760576,-0.039793506945470715,0.013264502315156905,0.096342174710086978,9.2509398333333337,-0.11441091666666667,-2.4925235416666665
1413394882725760512,-0.0307177948351002,0.0027925268031909274,0.095644043009289262,9.6105169999999998,-0.56388237500000005,-2.7458620000000002
1413394882730760448,-0.012566370614359173,0.021642082724729686,0.074700091985357306,9.7494445416666657,-0.7028099166666667,-2.9093061666666666
1413394882735760384,0.019547687622336492,0.023038346126325153,0.074001960284559576,9.242767624999999,-0.55571016666666662,-2.5905900416666663
1413394882740760576,0.041189770347066175,0.023038346126325153,0.074001960284559576,9.594172583333334,-0.081722083333333334,-2.8929617499999996
1413394882745760512,0.045378560551852569,0.039793506945470715,0.074001960284559576,9.2591120416666666,0.13075533333333333,-2.5170401666666664
1413394882750760448,0.023038346126325153,0.02583087292951608,0.073303828583761846,9.594172583333334,0.38409379166666668,-2.9501672083333332
1413394882755760384,0.0013962634015954637,0.037699111843077518,0.08168140899333462,9.0302902083333318,0.58839899999999989,-2.3699404166666667
1413394882760760576,-0.0307177948351002,0.012566370614359173,0.094247779607693802,9.0629790416666669,0.40861041666666664,-2.7540342083333331
1413394882765760512,-0.05375614096142535,0.013962634015954637,0.097738438111682452,9.3735229583333322,0.04903325,-2.6477955
1413394882770760448,-0.048171087355043489,0.0062831853071795866,0.095644043009289262,9.5451393333333332,-0.40861041666666664,-2.8357562916666668
1413394882775760384,-0.023038346126325153,0.037000980142279788,0.07609635538695278,9.7004112916666649,-0.75184316666666662,-2.9093061666666666
1413394882780760576,0.0062831853071795866,0.018151424220741029,0.070511301780570912,9.1365289166666663,-0.79270420833333322,-2.5088679583333335
1413394882785760512,0.038397243543875248,0.02652900463031381,0.063529984772593598,9.5206227083333328,-0.47398808333333331,-2.827584083333333
1413394882790760448,0.049567350756638949,0.031415926535897934,0.073303828583761846,9.3490063333333335,-0.024516625,-2.5742456250000001
1413394882795760384,0.037699111843077518,0.020245819323134219,0.074001960284559576,9.5696559583333336,0.35957716666666667,-2.8602729166666667
1413394882800760576,0.0041887902047863905,0.033510321638291124,0.08377580409572781,9.1365289166666663,0.51484912499999991,-2.3944570416666666
1413394882805760512,-0.0307177948351002,0.013962634015954637,0.089360857702109678,9.5614837499999989,0.31871612500000002,-2.827584083333333
1413394882810760448,-0.048171087355043489,0.033510321638291124,0.08377580409572781,9.6677224583333334,0.04903325,-2.8194118749999997
1413394882815760384,-0.049567350756638949,0.02652900463031381,0.091455252804502868,9.4552450416666662,-0.24516625,-2.803067458333333
1413394882820760576,-0.032114058236695664,0.040491638646268438,0.078888882190143686,9.4307284166666658,-0.66194887499999999,-2.6723121249999999
1413394882825760512,0.0041887902047863905,0.024434609527920613,0.089360857702109678,9.0956678750000002,-0.8253930416666666,-2.4026292499999999
1413394882830760448,0.036302848441482058,0.023736477827122883,0.08377580409572781,9.5124504999999999,-0.56388237500000005,-2.6641399166666666
1413394882835760384,0.055850536063818547,0.020943951023931952,0.089360857702109678,9.193734375,-0.13892754166666665,-2.4271458749999999
1413394882840760576,0.042586033748661642,0.013962634015954637,0.085870199198121014,9.5614837499999989,0.31871612500000002,-2.6641399166666666
1413394882845760512,0.013264502315156905,0.018151424220741029,0.085172067497323284,9.2999730833333327,0.4903325,-2.5905900416666663
1413394882850760448,-0.018849555921538759,0.013962634015954637,0.084473935796525554,9.594172583333334,0.52302133333333334,-2.8766173333333334
1413394882855760384,-0.036302848441482058,0.027925268031909273,0.085172067497323284,9.2999730833333327,0.122583125,-2.6641399166666666
1413394882860760576,-0.043982297150257102,0.025132741228718346,0.084473935796525554,9.5206227083333328,-0.26968287499999999,-2.8766173333333334
1413394882865760512,-0.028623399732707,0.041887902047863905,0.074700091985357306,9.3653507499999993,-0.55571016666666662,-2.5497290000000001
1413394882870760448,0.0013962634015954637,0.020245819323134219,0.084473935796525554,9.2100787916666658,-0.7028099166666667,-2.5987622500000001
1413394882875760384,0.024434609527920613,0.022340214425527419,0.075398223686155036,9.3571785416666664,-0.46581587499999999,-2.6069344583333329
1413394882880760576,0.036302848441482058,0.008377580409572781,0.084473935796525554,9.4634172499999991,-0.057205458333333334,-2.7213453750000003
1413394882885760512,0.024434609527920613,0.025132741228718346,0.07819075048934597,9.6350336250000002,0.23699404166666665,-2.7458620000000002
1413394882890760448,0.0090757121103705145,0.022340214425527419,0.076794487087750496,9.3898673749999997,0.29419949999999995,-2.6804843333333328
1413394882895760384,-0.01117010721276371,0.029321531433504733,0.076794487087750496,9.5533115416666661,0.34323275000000003,-2.827584083333333
1413394882900760576,-0.0307177948351002,0.030019663134302467,0.078888882190143686,9.4062117916666654,0.081722083333333334,-2.7785508333333331
1413394882905760512,-0.035604716740684328,0.032812189937493394,0.085870199198121014,9.3490063333333335,-0.30237170833333332,-2.7131731666666665
1413394882910760448,-0.025132741228718346,0.032114058236695664,0.085172067497323284,9.2672842499999994,-0.58022679166666657,-2.557901208333333
1413394882915760384,0.0041887902047863905,0.0090757121103705145,0.085870199198121014,9.1201845000000006,-0.60474341666666664,-2.4761791249999998
1413394882920760576,0.019547687622336492,0.0055850536063818549,0.08307767239493008,9.5206227083333328,-0.38409379166666668,-2.6886565416666666
1413394882925760512,0.02652900463031381,0.011868238913561441,0.08168140899333462,9.5860003749999994,-0.098066500000000001,-2.7867230416666664
1413394882930760448,0.013962634015954637,0.027925268031909273,0.07819075048934597,9.643205833333333,0.17978858333333333,-2.8439284999999996
1413394882935760384,0.00069813170079773186,0.02722713633111154,0.078888882190143686,9.3408341249999989,0.18796079166666665,-2.5987622500000001
1413394882940760576,-0.013264502315156905,0.034208453339088861,0.074700091985357306,9.4797616666666666,0.065377666666666667,-2.8684451249999996
1413394882945760512,-0.021642082724729686,0.02583087292951608,0.080285145591739146,9.0793234583333327,0.032688833333333334,-2.4189736666666666
1413394882950760448,-0.016057029118347832,0.024434609527920613,0.089360857702109678,9.5451393333333332,-0.24516625,-2.7458620000000002
1413394882955760384,-0.0090757121103705145,0.034208453339088861,0.085870199198121014,9.1447011249999992,-0.43312704166666666,-2.4189736666666666
1413394882960760576,0.0055850536063818549,0.014660765716752367,0.092851516206098328,9.4552450416666662,-0.32688833333333334,-2.7622064166666664
1413394882965760512,0.012566370614359173,0.023736477827122883,0.085172067497323284,9.3980395833333326,-0.024516625,-2.5742456250000001
1413394882970760448,0.0097738438111682462,0.02583087292951608,0.08307767239493008,9.5696559583333336,-0.040861041666666667,-2.8439284999999996
1413394882975760384,0.0020943951023931952,0.032114058236695664,0.075398223686155036,9.4797616666666666,0.040861041666666667,-2.5987622500000001
1413394882980760576,-0.0013962634015954637,0.016755160819145562,0.07958701389094143,9.3980395833333326,0.15527195833333335,-2.7131731666666665
1413394882985760512,-0.0090757121103705145,0.0307177948351002,0.07749261878854824,9.3980395833333326,0.081722083333333334,-2.6396232916666666
1413394882990760448,-0.011868238913561441,0.0153588974175501,0.086568330898918744,9.2591120416666666,-0.15527195833333335,-2.6396232916666666
1413394882995760384,-0.0090757121103705145,0.019547687622336492,0.087266462599716474,9.5369671250000003,-0.30237170833333332,-2.6968287499999999
1413394883000760576,-0.00069813170079773186,0.016755160819145562,0.07958701389094143,9.2836286666666652,-0.27785508333333331,-2.5497290000000001
1413394883005760512,0.0034906585039886592,0.01117010721276371,0.074700091985357306,9.4552450416666662,-0.22882183333333334,-2.6886565416666666
1413394883010760448,0.0034906585039886592,0.017453292519943295,0.07609635538695278,9.643205833333333,-0.024516625,-2.7948952499999997
1413394883015760384,-0.00069813170079773186,0.02652900463031381,0.070511301780570912,9.5696559583333336,0.073549874999999987,-2.803067458333333
1413394883020760576,-0.008377580409572781,0.034208453339088861,0.071209433481368656,9.3816951666666668,0.089894291666666667,-2.7703786249999998
1413394883025760512,-0.008377580409572781,0.034906585039886591,0.080285145591739146,9.3081452916666674,-0.057205458333333334,-2.6804843333333328
1413394883030760448,-0.008377580409572781,0.025132741228718346,0.085172067497323284,9.3081452916666674,-0.14709974999999997,-2.5987622500000001
1413394883035760384,-0.0034906585039886592,0.018151424220741029,0.08377580409572781,9.2345954166666662,-0.30237170833333332,-2.5252123749999997
1413394883040760576,0.0,0.019547687622336492,0.087964594300514204,9.4879338749999995,-0.34323275000000003,-2.6559677083333328
1413394883045760512,0.0062831853071795866,0.020943951023931952,0.085870199198121014,9.2918008749999998,-0.22064962499999999,-2.5252123749999997
1413394883050760448,0.0055850536063818549,0.013264502315156905,0.078888882190143686,9.5042782916666653,-0.10623870833333333,-2.7785508333333331
1413394883055760384,0.0020943951023931952,0.032114058236695664,0.080983277292536876,9.5614837499999989,0.0081722083333333334,-2.6477955
1413394883060760576,-0.0055850536063818549,0.021642082724729686,0.080983277292536876,9.3816951666666668,0.10623870833333333,-2.9419949999999999
1413394883065760512,-0.013264502315156905,0.037699111843077518,0.08237954069413235,9.3490063333333335,-0.024516625,-2.5333845833333335
1413394883070760448,-0.010471975511965976,0.023736477827122883,0.085870199198121014,9.3081452916666674,-0.196133,-2.6886565416666666
1413394883075760384,-0.0055850536063818549,0.030019663134302467,0.080983277292536876,9.4062117916666654,-0.26151066666666667,-2.5742456250000001
1413394883080760576,0.0,0.011868238913561441,0.094247779607693802,9.2754564583333323,-0.196133,-2.5905900416666663
1413394883085760512,0.0034906585039886592,0.024434609527920613,0.085172067497323284,9.6677224583333334,-0.29419949999999995,-2.6314510833333329
1413394883090760448,0.011868238913561441,0.014660765716752367,0.08377580409572781,9.332661916666666,-0.22882183333333334,-2.6396232916666666
1413394883095760384,0.013962634015954637,0.021642082724729686,0.07958701389094143,9.5614837499999989,0.073549874999999987,-2.6151066666666667
1413394883100760576,0.0013962634015954637,0.029321531433504733,0.07819075048934597,9.4879338749999995,0.20430520833333332,-2.7458620000000002
1413394883105760512,-0.013962634015954637,0.037000980142279788,0.07609635538695278,9.6023447916666651,0.17161637500000002,-2.8602729166666667
1413394883110760448,-0.017453292519943295,0.037699111843077518,0.08237954069413235,9.2999730833333327,-0.089894291666666667,-2.5252123749999997
1413394883115760384,-0.010471975511965976,0.02652900463031381,0.084473935796525554,9.3408341249999989,-0.13892754166666665,-2.7050009583333332
1413394883120760576,-0.0041887902047863905,0.021642082724729686,0.087964594300514204,9.0139457916666661,-0.196133,-2.5088679583333335
1413394883125760512,0.0,0.0090757121103705145,0.088662726001311934,9.5042782916666653,-0.34323275000000003,-2.8357562916666668
1413394883130760448,0.0076794487087750501,0.018151424220741029,0.085172067497323284,9.5778281666666665,-0.37592158333333331,-2.5905900416666663
1413394883135760384,0.019547687622336492,0.016755160819145562,0.078888882190143686,9.4307284166666658,-0.10623870833333333,-2.7703786249999998
1413394883140760576,0.010471975511965976,0.027925268031909273,0.069813170079773182,9.3898673749999997,0.13075533333333333,-2.6396232916666666
1413394883145760512,-0.0027925268031909274,0.030019663134302467,0.074700091985357306,9.6105169999999998,0.21247741666666667,-2.7295175833333332
1413394883150760448,-0.013264502315156905,0.035604716740684328,0.066322511575784518,9.4552450416666662,0.13075533333333333,-2.7703786249999998
1413394883155760384,-0.013264502315156905,0.030019663134302467,0.07819075048934597,9.1528733333333321,-0.016344416666666667,-2.6396232916666666
1413394883160760576,-0.0153588974175501,0.032812189937493394,0.07958701389094143,9.3163174999999985,-0.22064962499999999,-2.6559677083333328
1413394883165760512,-0.01117010721276371,0.018849555921538759,0.092153384505300612,9.2019065833333329,-0.31871612500000002,-2.5497290000000001
1413394883170760448,-0.0020943951023931952,0.013264502315156905,0.086568330898918744,9.4879338749999995,-0.46581587499999999,-2.7540342083333331
1413394883175760384,0.010471975511965976,0.02652900463031381,0.07749261878854824,9.471589458333332,-0.27785508333333331,-2.6069344583333329
1413394883180760576,0.020943951023931952,0.01117010721276371,0.080285145591739146,9.594172583333334,-0.11441091666666667,-2.8766173333333334
1413394883185760512,0.011868238913561441,0.033510321638291124,0.072605696882964116,9.5042782916666653,0.15527195833333335,-2.623278875
1413394883190760448,0.00069813170079773186,0.031415926535897934,0.07958701389094143,9.422556208333333,0.16344416666666667,-2.7540342083333331
1413394883195760384,-0.014660765716752367,0.031415926535897934,0.080983277292536876,9.5287949166666657,0.081722083333333334,-2.7785508333333331
1413394883200760576,-0.019547687622336492,0.0307177948351002,0.085172067497323284,9.2836286666666652,-0.15527195833333335,-2.5415567916666664
1413394883205760512,-0.018849555921538759,0.030019663134302467,0.092153384505300612,9.3081452916666674,-0.29419949999999995,-2.6069344583333329
1413394883210760448,-0.0055850536063818549,0.012566370614359173,0.097040306410884708,9.2754564583333323,-0.3350605416666666,-2.4761791249999998
1413394883215760384,0.00069813170079773186,0.0097738438111682462,0.089360857702109678,9.5533115416666661,-0.392266,-2.852100708333333
1413394883220760576,0.0153588974175501,0.021642082724729686,0.080285145591739146,9.3898673749999997,-0.29419949999999995,-2.6886565416666666
1413394883225760512,0.020245819323134219,0.016057029118347832,0.07958701389094143,9.5042782916666653,-0.024516625,-2.8684451249999996
1413394883230760448,0.013962634015954637,0.034906585039886591,0.073303828583761846,9.4879338749999995,0.29419949999999995,-2.6804843333333328
1413394883235760384,-0.0013962634015954637,0.0307177948351002,0.07958701389094143,9.4470728333333334,0.26968287499999999,-2.7703786249999998
1413394883240760576,-0.0090757121103705145,0.039095375244672985,0.080285145591739146,9.4879338749999995,0.04903325,-2.6804843333333328
1413394883245760512,-0.020245819323134219,0.024434609527920613,0.085172067497323284,9.2509398333333337,-0.11441091666666667,-2.6314510833333329
1413394883250760448,-0.016057029118347832,0.020245819323134219,0.087266462599716474,9.2509398333333337,-0.17161637500000002,-2.6968287499999999
1413394883255760384,-0.010471975511965976,0.022340214425527419,0.087266462599716474,9.3571785416666664,-0.40043820833333332,-2.5742456250000001
1413394883260760576,0.0027925268031909274,0.010471975511965976,0.086568330898918744,9.4552450416666662,-0.3350605416666666,-2.7867230416666664
1413394883265760512,0.013264502315156905,0.024434609527920613,0.07819075048934597,9.5860003749999994,-0.22064962499999999,-2.6151066666666667
1413394883270760448,0.016755160819145562,0.018849555921538759,0.07609635538695278,9.4143839999999983,-0.10623870833333333,-2.7867230416666664
1413394883275760384,0.0055850536063818549,0.030019663134302467,0.069813170079773182,9.4634172499999991,0.14709974999999997,-2.7458620000000002
1413394883280760576,-0.0048869219055841231,0.024434609527920613,0.073303828583761846,9.332661916666666,0.26151066666666667,-2.7867230416666664
1413394883285760512,-0.013962634015954637,0.040491638646268438,0.07819075048934597,9.471589458333332,-0.065377666666666667,-2.6886565416666666
1413394883290760448,-0.020245819323134219,0.020943951023931952,0.08377580409572781,9.1283567083333317,-0.21247741666666667,-2.557901208333333
1413394883295760384,-0.013264502315156905,0.02652900463031381,0.08377580409572781,9.422556208333333,-0.30237170833333332,-2.7295175833333332
1413394883300760576,0.0,0.019547687622336492,0.090757121103705138,9.2345954166666662,-0.392266,-2.4598347083333332
1413394883305760512,0.011868238913561441,0.013962634015954637,0.086568330898918744,9.6350336250000002,-0.36774937499999999,-2.9256505833333333
1413394883310760448,0.0153588974175501,0.021642082724729686,0.075398223686155036,9.5614837499999989,-0.18796079166666665,-2.5987622500000001
1413394883315760384,0.016057029118347832,0.018849555921538759,0.076794487087750496,9.422556208333333,-0.032688833333333334,-2.8929617499999996
1413394883320760576,0.008377580409572781,0.031415926535897934,0.071209433481368656,9.3571785416666664,0.14709974999999997,-2.6069344583333329
1413394883325760512,-0.0034906585039886592,0.023736477827122883,0.08237954069413235,9.5042782916666653,0.15527195833333335,-2.827584083333333
1413394883330760448,-0.014660765716752367,0.035604716740684328,0.08377580409572781,9.4470728333333334,0.040861041666666667,-2.5006957499999998
1413394883335760384,-0.0153588974175501,0.019547687622336492,0.092851516206098328,9.1201845000000006,-0.22064962499999999,-2.623278875
1413394883340760576,-0.012566370614359173,0.023038346126325153,0.087964594300514204,9.2672842499999994,-0.37592158333333331,-2.6477955
1413394883345760512,-0.0013962634015954637,0.0048869219055841231,0.093549647906896058,9.2672842499999994,-0.32688833333333334,-2.5905900416666663
1413394883350760448,0.0153588974175501,0.019547687622336492,0.090757121103705138,9.6677224583333334,-0.196133,-2.827584083333333
1413394883355760384,0.013962634015954637,0.024434609527920613,0.078888882190143686,9.4062117916666654,-0.081722083333333334,-2.5660734166666663
1413394883360760576,0.0076794487087750501,0.028623399732707,0.075398223686155036,9.5042782916666653,-0.0081722083333333334,-2.8112396666666668
1413394883365760512,-0.0020943951023931952,0.02583087292951608,0.069813170079773182,9.3163174999999985,0.17978858333333333,-2.5252123749999997
1413394883370760448,-0.008377580409572781,0.028623399732707,0.08237954069413235,9.5860003749999994,0.065377666666666667,-2.8439284999999996
1413394883375760384,-0.016755160819145562,0.038397243543875248,0.08237954069413235,9.3163174999999985,-0.081722083333333334,-2.5987622500000001
1413394883380760576,-0.010471975511965976,0.024434609527920613,0.090757121103705138,9.1855621666666654,-0.20430520833333332,-2.5660734166666663
1413394883385760512,-0.010471975511965976,0.025132741228718346,0.08237954069413235,9.4062117916666654,-0.30237170833333332,-2.6477955
1413394883390760448,0.00069813170079773186,0.018151424220741029,0.085870199198121014,9.4307284166666658,-0.26968287499999999,-2.6396232916666666
1413394883395760384,0.0090757121103705145,0.01117010721276371,0.086568330898918744,9.6105169999999998,-0.22064962499999999,-2.8766173333333334
1413394883400760576,0.011868238913561441,0.02652900463031381,0.069813170079773182,9.4797616666666666,0.016344416666666667,-2.7458620000000002
1413394883405760512,0.0020943951023931952,0.023038346126325153,0.074001960284559576,9.2509398333333337,0.057205458333333334,-2.7131731666666665
1413394883410760448,0.0,0.027925268031909273,0.072605696882964116,9.5124504999999999,0.16344416666666667,-2.8112396666666668
1413394883415760384,-0.008377580409572781,0.0307177948351002,0.085172067497323284,9.422556208333333,0.024516625,-2.7785508333333331
1413394883420760576,-0.016755160819145562,0.02722713633111154,0.080285145591739146,9.3735229583333322,-0.16344416666666667,-2.7458620000000002
1413394883425760512,-0.010471975511965976,0.028623399732707,0.085172067497323284,9.2918008749999998,-0.35957716666666667,-2.6069344583333329
1413394883430760448,-0.0020943951023931952,0.018151424220741029,0.088662726001311934,9.3735229583333322,-0.37592158333333331,-2.6477955
1413394883435760384,0.012566370614359173,0.02583087292951608,0.087266462599716474,9.3408341249999989,-0.26151066666666667,-2.5987622500000001
1413394883440760576,0.012566370614359173,0.0090757121103705145,0.080983277292536876,9.3408341249999989,-0.13892754166666665,-2.7458620000000002
1413394883445760512,0.0055850536063818549,0.025132741228718346,0.074700091985357306,9.594172583333334,-0.016344416666666667,-2.6886565416666666
1413394883450760448,0.0020943951023931952,0.021642082724729686,0.074700091985357306,9.2836286666666652,0.040861041666666667,-2.7540342083333331
1413394883455760384,-0.0048869219055841231,0.032812189937493394,0.074700091985357306,9.471589458333332,0.11441091666666667,-2.7785508333333331
1413394883460760576,-0.016057029118347832,0.02583087292951608,0.08237954069413235,9.2509398333333337,0.040861041666666667,-2.6396232916666666
1413394883465760512,-0.016755160819145562,0.027925268031909273,0.087964594300514204,9.3980395833333326,-0.22064962499999999,-2.6804843333333328
1413394883470760448,-0.0041887902047863905,0.02652900463031381,0.092153384505300612,9.2509398333333337,-0.4494714583333333,-2.4026292499999999
1413394883475760384,0.0090757121103705145,0.021642082724729686,0.089360857702109678,9.5778281666666665,-0.34323275000000003,-2.7785508333333331
1413394883480760576,0.013962634015954637,0.020245819323134219,0.087266462599716474,9.3244897083333331,-0.040861041666666667,-2.5415567916666664
1413394883485760512,0.014660765716752367,0.014660765716752367,0.080983277292536876,9.5206227083333328,-0.04903325,-2.827584083333333
1413394883490760448,0.0034906585039886592,0.031415926535897934,0.067718774977379978,9.5451393333333332,-0.057205458333333334,-2.6151066666666667
1413394883495760384,-0.0041887902047863905,0.014660765716752367,0.074700091985357306,9.4470728333333334,0.15527195833333335,-2.8684451249999996
1413394883500760576,-0.013264502315156905,0.033510321638291124,0.071209433481368656,9.4389006250000005,0.15527195833333335,-2.6069344583333329
1413394883505760512,-0.017453292519943295,0.024434609527920613,0.080285145591739146,9.3980395833333326,-0.081722083333333334,-2.7703786249999998
1413394883510760448,-0.016755160819145562,0.034208453339088861,0.07819075048934597,9.4634172499999991,-0.4494714583333333,-2.6151066666666667
1413394883515760384,0.0027925268031909274,0.0097738438111682462,0.087266462599716474,9.2918008749999998,-0.37592158333333331,-2.6151066666666667
1413394883520760576,0.016755160819145562,0.02652900463031381,0.08307767239493008,9.2999730833333327,-0.26151066666666667,-2.557901208333333
1413394883525760512,0.019547687622336492,0.01117010721276371,0.088662726001311934,9.2836286666666652,-0.016344416666666667,-2.6314510833333329
1413394883530760448,0.010471975511965976,0.016057029118347832,0.085172067497323284,9.7494445416666657,0.122583125,-2.8602729166666667
1413394883535760384,-0.0027925268031909274,0.020245819323134219,0.072605696882964116,9.4143839999999983,0.11441091666666667,-2.6968287499999999
1413394883540760576,-0.013962634015954637,0.027925268031909273,0.066322511575784518,9.4470728333333334,0.14709974999999997,-2.8194118749999997
1413394883545760512,-0.016755160819145562,0.019547687622336492,0.07819075048934597,9.3081452916666674,-0.073549874999999987,-2.6886565416666666
1413394883550760448,-0.016057029118347832,0.028623399732707,0.07749261878854824,9.3653507499999993,-0.35957716666666667,-2.5497290000000001
1413394883555760384,-0.0013962634015954637,0.023038346126325153,0.090058989402907408,9.2672842499999994,-0.4494714583333333,-2.6559677083333328
1413394883560760576,0.013962634015954637,0.021642082724729686,0.091455252804502868,9.2836286666666652,-0.17978858333333333,-2.6641399166666666
1413394883565760512,0.012566370614359173,0.010471975511965976,0.08168140899333462,9.5042782916666653,0.057205458333333334,-2.6069344583333329
1413394883570760448,0.0020943951023931952,0.023038346126325153,0.074001960284559576,9.7494445416666657,-0.065377666666666667,-2.7540342083333331
1413394883575760384,-0.012566370614359173,0.032114058236695664,0.05375614096142535,9.422556208333333,-0.36774937499999999,-2.6723121249999999
1413394883580760576,-0.018849555921538759,-0.0027925268031909274,0.052359877559829883,9.332661916666666,-0.040861041666666667,-2.8847895416666667
1413394883585760512,-0.021642082724729686,0.0027925268031909274,0.041887902047863905,9.5369671250000003,-0.45764366666666667,-2.5497290000000001
1413394883590760448,-0.0076794487087750501,-0.025132741228718346,0.045378560551852569,9.3653507499999993,-0.47398808333333331,-2.6886565416666666
1413394883595760384,0.0153588974175501,-0.018151424220741029,0.058643062867009467,9.6677224583333334,-0.16344416666666667,-2.6314510833333329
1413394883600760576,0.021642082724729686,0.013962634015954637,0.085172067497323284,9.8801998750000006,0.47398808333333331,-3.0237170833333331
1413394883605760512,-0.00069813170079773186,0.041887902047863905,0.069115038378975438,9.5696559583333336,0.13892754166666665,-2.8112396666666668
1413394883610760448,-0.0062831853071795866,0.030019663134302467,0.088662726001311934,9.2264232083333333,-0.032688833333333334,-3.0318892916666664
1413394883615760384,0.0041887902047863905,0.062133721370998138,0.14032447186034408,9.2754564583333323,0.13892754166666665,-2.9011339583333333
1413394883620760576,-0.0027925268031909274,0.055152404363020817,0.17872171540421936,8.8178127916666664,0.16344416666666667,-2.6396232916666666
1413394883625760512,-0.018151424220741029,0.046774823953448029,0.17732545200262387,9.2918008749999998,-0.41678262500000002,-2.8847895416666667
1413394883630760448,-0.013962634015954637,0.039095375244672985,0.13962634015954636,8.8913626666666659,-0.92345954166666655,-2.3454237916666667
1413394883635760384,-0.0013962634015954637,0.0041887902047863905,0.064228116473391328,9.0711512499999998,-1.0623870833333333,-2.6396232916666666
1413394883640760576,0.033510321638291124,-0.013962634015954637,0.028623399732707,9.4797616666666666,-0.58839899999999989,-2.6559677083333328
1413394883645760512,0.050265482457436693,-0.0076794487087750501,0.024434609527920613,9.5614837499999989,0.26151066666666667,-2.6968287499999999
1413394883650760448,0.029321531433504733,0.034906585039886591,0.023736477827122883,9.2754564583333323,0.89077070833333327,-2.557901208333333
1413394883655760384,-0.022340214425527419,-0.0048869219055841231,0.024434609527920613,8.8586738333333326,0.71915433333333334,-2.3372515833333334
1413394883660760576,-0.058643062867009467,0.0062831853071795866,0.020943951023931952,9.7167557083333325,0.089894291666666667,-2.9828560416666661
1413394883665760512,-0.05305800926062762,0.018849555921538759,0.060737457969402671,9.2100787916666658,0.040861041666666667,-2.4189736666666666
1413394883670760448,-0.021642082724729686,0.019547687622336492,0.12147491593880534,10.215260416666666,-0.44129924999999998,-3.138128
1413394883675760384,-0.00069813170079773186,0.062133721370998138,0.12496557444279401,8.7851239583333331,-0.44129924999999998,-1.985846625
1413394883680760576,0.0153588974175501,0.0069813170079773184,0.12636183784438945,9.422556208333333,-0.56388237500000005,-2.6804843333333328
1413394883685760512,0.02583087292951608,0.049567350756638949,0.10611601852125524,10.109021708333332,-0.37592158333333331,-2.9910282499999998
1413394883690760448,0.043284165449459372,0.036302848441482058,0.13055062804917586,9.4552450416666662,0.016344416666666667,-2.623278875
1413394883695760384,0.034208453339088861,0.05305800926062762,0.12077678423800758,9.822994416666667,0.057205458333333334,-2.8602729166666667
1413394883700760576,0.0069813170079773184,0.034906585039886591,0.08307767239493008,8.883190458333333,-0.0081722083333333334,-2.1574629999999999
1413394883705760512,-0.013264502315156905,-0.0034906585039886592,0.055152404363020817,9.3490063333333335,0.17161637500000002,-2.9665116249999999
1413394883710760448,-0.030019663134302467,0.0062831853071795866,0.050265482457436693,9.6840668749999992,0.13892754166666665,-2.9746838333333332
1413394883715760384,-0.037000980142279788,0.0055850536063818549,0.063529984772593598,9.5451393333333332,-0.10623870833333333,-2.7376897916666665
1413394883720760576,-0.028623399732707,0.013962634015954637,0.05445427266222308,9.1610455416666667,-0.46581587499999999,-2.2228406666666665
1413394883725760512,-0.013264502315156905,0.010471975511965976,0.048869219055841226,9.3898673749999997,-0.392266,-2.5497290000000001
1413394883730760448,-0.0013962634015954637,-0.0013962634015954637,0.047472955654245766,9.193734375,0.081722083333333334,-2.8602729166666667
1413394883735760384,0.0020943951023931952,0.016755160819145562,0.061435589670200401,9.6023447916666651,-0.13892754166666665,-3.0318892916666664
1413394883740760576,0.021642082724729686,0.064228116473391328,0.093549647906896058,9.5124504999999999,-0.392266,-2.6151066666666667
1413394883745760512,0.032812189937493394,0.022340214425527419,0.11170107212763709,8.6707130416666658,-0.016344416666666667,-2.3045627499999997
1413394883750760448,0.021642082724729686,0.043284165449459372,0.10471975511965977,9.2672842499999994,0.17161637500000002,-2.6804843333333328
1413394883755760384,-0.011868238913561441,0.02652900463031381,0.10332349171806432,9.2999730833333327,0.40861041666666664,-2.7948952499999997
1413394883760760576,-0.02652900463031381,0.029321531433504733,0.11030480872604163,9.872027666666666,0.13892754166666665,-3.4078108749999996
1413394883765760512,-0.030019663134302467,0.069813170079773182,0.099832833214075656,9.4797616666666666,-0.45764366666666667,-2.5415567916666664
1413394883770760448,-0.0069813170079773184,0.030019663134302467,0.1075122819228507,8.9894291666666657,-0.53936574999999998,-2.4598347083333332
1413394883775760384,0.011868238913561441,0.023736477827122883,0.089360857702109678,9.3571785416666664,-0.42495483333333334,-2.5333845833333335
1413394883780760576,0.012566370614359173,0.010471975511965976,0.066322511575784518,9.5287949166666657,0.016344416666666667,-2.8439284999999996
1413394883785760512,0.0027925268031909274,0.023736477827122883,0.066322511575784518,9.7984777916666665,0.18796079166666665,-3.1299557916666663
1413394883790760448,-0.0034906585039886592,0.033510321638291124,0.058643062867009467,9.4634172499999991,-0.38409379166666668,-2.5088679583333335
1413394883795760384,0.0034906585039886592,0.0076794487087750501,0.058643062867009467,9.1610455416666667,-0.27785508333333331,-2.3535959999999996
1413394883800760576,0.0069813170079773184,0.0,0.060737457969402671,9.2999730833333327,0.065377666666666667,-2.5333845833333335
1413394883805760512,-0.0069813170079773184,0.02583087292951608,0.064926248174189058,9.9537497499999983,0.28602729166666663,-3.0237170833333331
1413394883810760448,-0.027925268031909273,0.022340214425527419,0.090757121103705138,9.471589458333332,0.51484912499999991,-2.9583394166666666
1413394883815760384,-0.031415926535897934,0.044680428851054839,0.10053096491487339,9.7494445416666657,-0.22882183333333334,-2.8357562916666668
1413394883820760576,-0.017453292519943295,0.057246799465414,0.073303828583761846,9.1120122916666659,-0.81722083333333329,-2.2473572916666664
1413394883825760512,0.014660765716752367,0.010471975511965976,0.092851516206098328,8.6870574583333333,-0.27785508333333331,-2.288218333333333
1413394883830760448,0.033510321638291124,0.013264502315156905,0.1096066770252439,9.9292331249999997,0.122583125,-2.9828560416666661
1413394883835760384,0.016755160819145562,0.037699111843077518,0.099832833214075656,9.4143839999999983,0.29419949999999995,-2.9338227916666666
1413394883840760576,0.0055850536063818549,0.037000980142279788,0.10821041362364843,9.6023447916666651,0.14709974999999997,-2.8766173333333334
1413394883845760512,-0.0055850536063818549,0.039095375244672985,0.087964594300514204,9.1855621666666654,-0.29419949999999995,-2.3535959999999996
1413394883850760448,-0.0097738438111682462,0.008377580409572781,0.05305800926062762,8.7606073333333327,-0.43312704166666666,-2.1574629999999999
1413394883855760384,0.0069813170079773184,-0.023736477827122883,0.076794487087750496,9.3898673749999997,0.065377666666666667,-2.7458620000000002
1413394883860760576,-0.010471975511965976,0.020245819323134219,0.072605696882964116,9.9128887083333321,0.18796079166666665,-2.9501672083333332
1413394883865760512,-0.031415926535897934,0.034906585039886591,0.068416906678177722,9.4143839999999983,0.122583125,-2.8439284999999996
1413394883870760448,-0.023038346126325153,0.037000980142279788,0.070511301780570912,9.6105169999999998,-0.34323275000000003,-2.7131731666666665
1413394883875760384,-0.0062831853071795866,0.038397243543875248,0.060737457969402671,9.471589458333332,-0.8253930416666666,-2.4108014583333333
1413394883880760576,0.0097738438111682462,0.013264502315156905,0.048869219055841226,8.8423294166666651,-0.25333845833333329,-2.4271458749999999
1413394883885760512,0.036302848441482058,0.0062831853071795866,0.087964594300514204,9.8638554583333331,0.24516625,-2.8929617499999996
1413394883890760448,0.018151424220741029,0.033510321638291124,0.10262536001726656,9.7412723333333329,0.52302133333333334,-3.1136113750000001
1413394883895760384,-0.013962634015954637,0.048171087355043489,0.10681415022205297,9.594172583333334,0.48216029166666663,-2.9501672083333332
1413394883900760576,-0.014660765716752367,0.049567350756638949,0.12077678423800758,9.332661916666666,0.032688833333333334,-2.5660734166666663
1413394883905760512,-0.025132741228718346,0.040491638646268438,0.07819075048934597,9.2509398333333337,-0.66194887499999999,-2.4598347083333332
1413394883910760448,0.0,-0.0013962634015954637,0.074700091985357306,9.0057735833333332,-0.65377666666666667,-2.3617682083333333
1413394883915760384,0.025132741228718346,-0.0027925268031909274,0.093549647906896058,9.4470728333333334,-0.11441091666666667,-2.7376897916666665
1413394883920760576,0.0097738438111682462,0.014660765716752367,0.10053096491487339,9.733100125,0.21247741666666667,-3.0400614999999998
1413394883925760512,-0.0153588974175501,0.030019663134302467,0.091455252804502868,9.7412723333333329,0.098066500000000001,-2.9910282499999998
1413394883930760448,-0.013264502315156905,0.049567350756638949,0.07958701389094143,9.3898673749999997,-0.057205458333333334,-2.5088679583333335
1413394883935760384,-0.0090757121103705145,0.027925268031909273,0.050963614158234416,9.0548068333333322,-0.81722083333333329,-2.2963905416666663
1413394883940760576,0.0055850536063818549,-0.0034906585039886592,0.046774823953448029,9.2509398333333337,-0.38409379166666668,-2.5006957499999998
1413394883945760512,0.017453292519943295,-0.0027925268031909274,0.071907565182166372,9.3898673749999997,0.31871612500000002,-2.8112396666666668
1413394883950760448,-0.0027925268031909274,0.027925268031909273,0.099832833214075656,9.7657889583333333,0.73549874999999998,-3.0890947499999997
1413394883955760384,-0.030019663134302467,0.050963614158234416,0.10402162341886204,9.7412723333333329,0.29419949999999995,-2.9910282499999998
1413394883960760576,-0.02652900463031381,0.055152404363020817,0.093549647906896058,9.2019065833333329,-0.36774937499999999,-2.3127349583333334
1413394883965760512,-0.011868238913561441,0.037000980142279788,0.070511301780570912,9.2345954166666662,-0.80904862499999997,-2.4434902916666665
1413394883970760448,0.012566370614359173,0.013264502315156905,0.067718774977379978,9.1201845000000006,-0.73549874999999998,-2.3209071666666663
1413394883975760384,0.027925268031909273,-0.0034906585039886592,0.075398223686155036,9.3980395833333326,-0.196133,-2.623278875
1413394883980760576,0.025132741228718346,0.025132741228718346,0.10402162341886204,9.7984777916666665,0.53119354166666666,-3.0890947499999997
1413394883985760512,-0.0076794487087750501,0.042586033748661642,0.10402162341886204,9.6105169999999998,0.49850470833333332,-2.8602729166666667
1413394883990760448,-0.018849555921538759,0.05445427266222308,0.088662726001311934,9.6350336250000002,-0.3105439166666667,-2.6396232916666666
1413394883995760384,-0.017453292519943295,0.040491638646268438,0.063529984772593598,9.1038400833333331,-0.40043820833333332,-2.4108014583333333
1413394884000760576,-0.0048869219055841231,0.0,0.055850536063818547,8.9649125416666671,-0.50667691666666659,-2.3617682083333333
1413394884005760512,0.0062831853071795866,-0.024434609527920613,0.062831853071795868,9.5369671250000003,-0.26968287499999999,-2.6886565416666666
1413394884010760448,0.01117010721276371,0.010471975511965976,0.091455252804502868,9.9128887083333321,0.34323275000000003,-3.0972669583333334
1413394884015760384,-0.0013962634015954637,0.031415926535897934,0.1054178868204575,9.5778281666666665,0.38409379166666668,-2.7948952499999997
1413394884020760576,-0.018849555921538759,0.043284165449459372,0.099134701513277898,9.6186892083333326,0.04903325,-2.6886565416666666
1413394884025760512,-0.020245819323134219,0.037000980142279788,0.08307767239493008,9.5124504999999999,-0.392266,-2.5660734166666663
1413394884030760448,-0.0020943951023931952,0.032812189937493394,0.065624379874986788,9.0629790416666669,-0.56388237500000005,-2.3862848333333333
1413394884035760384,0.014660765716752367,-0.0027925268031909274,0.068416906678177722,9.0221180000000007,-0.35140495833333335,-2.3862848333333333
1413394884040760576,0.014660765716752367,0.0034906585039886592,0.08307767239493008,9.7412723333333329,0.032688833333333334,-2.9501672083333332
1413394884045760512,0.0062831853071795866,0.039793506945470715,0.098436569812480182,9.5860003749999994,0.38409379166666668,-2.9011339583333333
1413394884050760448,-0.0027925268031909274,0.050265482457436693,0.10471975511965977,9.4552450416666662,0.26151066666666667,-2.7376897916666665
1413394884055760384,-0.02652900463031381,0.048869219055841226,0.08168140899333462,9.3816951666666668,-0.016344416666666667,-2.5742456250000001
1413394884060760576,-0.019547687622336492,0.02652900463031381,0.067718774977379978,9.1201845000000006,-0.31871612500000002,-2.5415567916666664
1413394884065760512,-0.0013962634015954637,0.010471975511965976,0.064926248174189058,9.0548068333333322,-0.57205458333333326,-2.3454237916666667
1413394884070760448,0.01117010721276371,-0.010471975511965976,0.067020643276582248,9.3816951666666668,-0.3105439166666667,-2.7948952499999997
1413394884075760384,0.016057029118347832,0.0055850536063818549,0.085172067497323284,9.5369671250000003,0.081722083333333334,-2.7785508333333331
1413394884080760576,0.0097738438111682462,0.021642082724729686,0.099832833214075656,9.7004112916666649,0.3350605416666666,-2.8194118749999997
1413394884085760512,-0.0062831853071795866,0.036302848441482058,0.090757121103705138,9.6105169999999998,0.17978858333333333,-2.8112396666666668
1413394884090760448,-0.018151424220741029,0.041189770347066175,0.075398223686155036,9.5206227083333328,-0.0081722083333333334,-2.7050009583333332
1413394884095760384,-0.018849555921538759,0.02652900463031381,0.068416906678177722,9.3898673749999997,-0.40861041666666664,-2.6886565416666666
1413394884100760576,-0.0013962634015954637,0.027925268031909273,0.062133721370998138,9.2918008749999998,-0.47398808333333331,-2.5252123749999997
1413394884105760512,0.010471975511965976,0.016057029118347832,0.07958701389094143,9.5042782916666653,-0.21247741666666667,-2.7622064166666664
1413394884110760448,0.011868238913561441,0.020245819323134219,0.093549647906896058,9.6023447916666651,0.098066500000000001,-2.7458620000000002
1413394884115760384,0.0013962634015954637,0.038397243543875248,0.092851516206098328,9.7167557083333325,0.21247741666666667,-2.9093061666666666
1413394884120760576,-0.013962634015954637,0.040491638646268438,0.089360857702109678,9.3490063333333335,0.14709974999999997,-2.6968287499999999
1413394884125760512,-0.020245819323134219,0.030019663134302467,0.07749261878854824,9.4062117916666654,-0.122583125,-2.6559677083333328
1413394884130760448,-0.008377580409572781,0.02583087292951608,0.07609635538695278,9.2672842499999994,-0.40043820833333332,-2.5415567916666664
1413394884135760384,0.0069813170079773184,0.017453292519943295,0.072605696882964116,9.0466346249999994,-0.45764366666666667,-2.5742456250000001
1413394884140760576,0.012566370614359173,-0.0034906585039886592,0.084473935796525554,9.2591120416666666,-0.065377666666666667,-2.623278875
1413394884145760512,0.0048869219055841231,0.0034906585039886592,0.095644043009289262,9.5778281666666665,0.081722083333333334,-2.7867230416666664
1413394884150760448,-0.0034906585039886592,0.024434609527920613,0.093549647906896058,9.7249279166666671,0.122583125,-2.8194118749999997
1413394884155760384,-0.014660765716752367,0.032812189937493394,0.085870199198121014,9.3980395833333326,0.13892754166666665,-2.7540342083333331
1413394884160760576,-0.018849555921538759,0.02652900463031381,0.080983277292536876,9.422556208333333,-0.14709974999999997,-2.6396232916666666
1413394884165760512,-0.0055850536063818549,0.029321531433504733,0.070511301780570912,9.4062117916666654,-0.52302133333333334,-2.6886565416666666
1413394884170760448,0.010471975511965976,0.020245819323134219,0.067718774977379978,9.1528733333333321,-0.40861041666666664,-2.5987622500000001
1413394884175760384,0.016057029118347832,0.0041887902047863905,0.085172067497323284,9.2754564583333323,0.040861041666666667,-2.6804843333333328
1413394884180760576,0.0069813170079773184,0.016057029118347832,0.090058989402907408,9.6922390833333321,0.073549874999999987,-2.8357562916666668
1413394884185760512,-0.0069813170079773184,0.038397243543875248,0.08377580409572781,9.733100125,0.11441091666666667,-2.9828560416666661
1413394884190760448,-0.0097738438111682462,0.040491638646268438,0.091455252804502868,9.3816951666666668,0.16344416666666667,-2.6559677083333328
1413394884195760384,-0.016057029118347832,0.036302848441482058,0.08237954069413235,9.3898673749999997,-0.04903325,-2.6559677083333328
1413394884200760576,-0.012566370614359173,0.037000980142279788,0.068416906678177722,9.3816951666666668,-0.46581587499999999,-2.5987622500000001
1413394884205760512,0.0034906585039886592,0.024434609527920613,0.068416906678177722,9.193734375,-0.41678262500000002,-2.7050009583333332
1413394884210760448,0.013962634015954637,0.012566370614359173,0.088662726001311934,9.2999730833333327,-0.065377666666666667,-2.5660734166666663
1413394884215760384,0.0062831853071795866,0.0069813170079773184,0.087964594300514204,9.6105169999999998,0.081722083333333334,-2.803067458333333
1413394884220760576,-0.0027925268031909274,0.025132741228718346,0.084473935796525554,9.643205833333333,0.10623870833333333,-2.827584083333333
1413394884225760512,-0.0048869219055841231,0.02722713633111154,0.092153384505300612,9.5369671250000003,0.089894291666666667,-2.8112396666666668
1413394884230760448,-0.0090757121103705145,0.039095375244672985,0.07819075048934597,9.4389006250000005,-0.057205458333333334,-2.6151066666666667
1413394884235760384,-0.0090757121103705145,0.02722713633111154,0.076794487087750496,9.3163174999999985,-0.22882183333333334,-2.5905900416666663
1413394884240760576,0.0041887902047863905,0.019547687622336492,0.07749261878854824,9.2264232083333333,-0.35957716666666667,-2.5497290000000001
1413394884245760512,0.0090757121103705145,0.011868238913561441,0.086568330898918744,9.4307284166666658,-0.25333845833333329,-2.557901208333333
1413394884250760448,0.0055850536063818549,-0.0013962634015954637,0.085870199198121014,9.4307284166666658,-0.089894291666666667,-2.5660734166666663
1413394884255760384,-0.0048869219055841231,0.02722713633111154,0.078888882190143686,9.7739611666666661,-0.016344416666666667,-2.8194118749999997
1413394884260760576,-0.0076794487087750501,0.034906585039886591,0.076794487087750496,9.1855621666666654,0.024516625,-2.557901208333333
1413394884265760512,-0.0055850536063818549,0.030019663134302467,0.07749261878854824,9.7167557083333325,-0.089894291666666667,-2.7295175833333332
1413394884270760448,-0.01117010721276371,0.029321531433504733,0.066322511575784518,9.2836286666666652,-0.20430520833333332,-2.5415567916666664
1413394884275760384,-0.0034906585039886592,0.020245819323134219,0.072605696882964116,8.9894291666666657,-0.24516625,-2.6396232916666666
1413394884280760576,0.01117010721276371,0.010471975511965976,0.08307767239493008,9.3408341249999989,-0.23699404166666665,-2.5088679583333335
1413394884285760512,0.0041887902047863905,-0.0041887902047863905,0.087266462599716474,9.4961060833333324,-0.081722083333333334,-2.6559677083333328
1413394884290760448,-0.0048869219055841231,0.024434609527920613,0.080983277292536876,9.643205833333333,0.065377666666666667,-2.8112396666666668
1413394884295760384,0.0,0.02583087292951608,0.089360857702109678,9.2754564583333323,-0.057205458333333334,-2.6314510833333329
1413394884300760576,0.0020943951023931952,0.017453292519943295,0.087266462599716474,9.643205833333333,-0.065377666666666667,-2.852100708333333
1413394884305760512,-0.0055850536063818549,0.023038346126325153,0.073303828583761846,9.4470728333333334,0.016344416666666667,-2.5905900416666663
1413394884310760448,-0.01117010721276371,0.016755160819145562,0.070511301780570912,9.2591120416666666,-0.11441091666666667,-2.7458620000000002
1413394884315760384,-0.0069813170079773184,0.0090757121103705145,0.078888882190143686,9.3653507499999993,-0.13075533333333333,-2.5252123749999997
1413394884320760576,-0.016057029118347832,-0.0069813170079773184,0.084473935796525554,9.5533115416666661,0.032688833333333334,-2.8194118749999997
1413394884325760512,-0.02652900463031381,0.02583087292951608,0.085172067497323284,9.5696559583333336,0.0081722083333333334,-2.8602729166666667
1413394884330760448,-0.019547687622336492,0.02583087292951608,0.090757121103705138,9.5451393333333332,-0.31871612500000002,-2.8194118749999997
1413394884335760384,0.0,0.030019663134302467,0.096342174710086978,9.4389006250000005,-0.40043820833333332,-2.7458620000000002
1413394884340760576,0.0055850536063818549,0.041189770347066175,0.07958701389094143,9.422556208333333,-0.21247741666666667,-2.5905900416666663
1413394884345760512,0.0153588974175501,0.023038346126325153,0.061435589670200401,9.2591120416666666,-0.26968287499999999,-2.6723121249999999
1413394884350760448,0.02722713633111154,0.010471975511965976,0.056548667764616284,9.1773899583333325,-0.34323275000000003,-2.557901208333333
1413394884355760384,0.0307177948351002,0.0090757121103705145,0.061435589670200401,9.3653507499999993,0.26151066666666667,-2.7540342083333331
1413394884360760576,0.014660765716752367,0.020245819323134219,0.062133721370998138,9.4143839999999983,0.36774937499999999,-2.9501672083333332
1413394884365760512,-0.0013962634015954637,0.022340214425527419,0.078888882190143686,9.4797616666666666,0.26151066666666667,-2.7948952499999997
1413394884370760448,-0.016755160819145562,0.034208453339088861,0.078888882190143686,9.4797616666666666,0.3105439166666667,-2.623278875
1413394884375760384,-0.028623399732707,0.034906585039886591,0.085172067497323284,9.1610455416666667,0.098066500000000001,-2.5905900416666663
1413394884380760576,-0.038397243543875248,0.0090757121103705145,0.094247779607693802,9.1692177499999996,-0.22882183333333334,-2.7295175833333332
1413394884385760512,-0.033510321638291124,0.020245819323134219,0.088662726001311934,9.6922390833333321,-0.59657120833333332,-2.7540342083333331
1413394884390760448,-0.0027925268031909274,0.040491638646268438,0.10262536001726656,9.5124504999999999,-0.6292600416666666,-2.6641399166666666
1413394884395760384,0.028623399732707,0.032812189937493394,0.10262536001726656,9.3081452916666674,-0.80904862499999997,-2.4925235416666665
1413394884400760576,0.050963614158234416,0.030019663134302467,0.092851516206098328,9.6023447916666651,-0.29419949999999995,-2.6069344583333329
1413394884405760512,0.045378560551852569,0.039095375244672985,0.07749261878854824,9.4961060833333324,0.36774937499999999,-2.6723121249999999
1413394884410760448,0.013264502315156905,0.02583087292951608,0.084473935796525554,9.422556208333333,0.76818758333333337,-2.803067458333333
1413394884415760384,-0.037000980142279788,0.035604716740684328,0.05166174585903216,9.7903055833333319,0.5475379583333333,-3.0809225416666663
1413394884420760576,-0.060039326268604934,0.041887902047863905,0.063529984772593598,9.0874956666666655,-0.098066500000000001,-2.4761791249999998
1413394884425760512,-0.043982297150257102,0.022340214425527419,0.074700091985357306,9.2509398333333337,-0.71098212499999991,-2.4271458749999999
1413394884430760448,-0.01117010721276371,0.013264502315156905,0.080285145591739146,9.3980395833333326,-0.58022679166666657,-2.4353180833333332
1413394884435760384,0.016755160819145562,-0.0090757121103705145,0.092851516206098328,9.2591120416666666,-0.073549874999999987,-2.582417833333333
1413394884440760576,0.013264502315156905,0.0027925268031909274,0.085870199198121014,9.831166624999998,0.196133,-2.9256505833333333
1413394884445760512,-0.00069813170079773186,0.02652900463031381,0.097040306410884708,9.643205833333333,0.081722083333333334,-2.827584083333333
1413394884450760448,-0.00069813170079773186,0.041189770347066175,0.089360857702109678,9.5696559583333336,-0.46581587499999999,-2.582417833333333
1413394884455760384,0.016057029118347832,0.024434609527920613,0.094247779607693802,9.2345954166666662,-0.52302133333333334,-2.288218333333333
1413394884460760576,0.0307177948351002,0.010471975511965976,0.094945911308491532,9.0139457916666661,-0.089894291666666667,-2.4761791249999998
1413394884465760512,0.016755160819145562,0.0048869219055841231,0.097738438111682452,9.6268614166666655,0.392266,-2.8357562916666668
1413394884470760448,-0.02652900463031381,0.016755160819145562,0.071209433481368656,9.6840668749999992,0.68646550000000006,-3.0972669583333334
1413394884475760384,-0.050963614158234416,0.033510321638291124,0.069115038378975438,9.4552450416666662,0.25333845833333329,-2.803067458333333
1413394884480760576,-0.05166174585903216,0.044680428851054839,0.059341194567807204,9.1610455416666667,-0.80904862499999997,-2.4108014583333333
1413394884485760512,-0.0076794487087750501,0.0090757121103705145,0.062133721370998138,8.8913626666666659,-0.93163174999999998,-2.3862848333333333
1413394884490760448,0.031415926535897934,-0.0013962634015954637,0.084473935796525554,9.1855621666666654,-0.16344416666666667,-2.6151066666666667
1413394884495760384,0.029321531433504733,0.00069813170079773186,0.092851516206098328,9.5696559583333336,0.49850470833333332,-3.0645781249999997
1413394884500760576,-0.00069813170079773186,0.020245819323134219,0.094247779607693802,9.5124504999999999,0.40861041666666664,-2.9583394166666666
1413394884505760512,-0.0069813170079773184,0.043982297150257102,0.099832833214075656,9.6595502499999988,-0.032688833333333334,-2.8112396666666668
1413394884510760448,0.0048869219055841231,0.043284165449459372,0.090757121103705138,9.4961060833333324,-0.7436709583333333,-2.6641399166666666
1413394884515760384,0.011868238913561441,0.042586033748661642,0.074001960284559576,9.0384624166666665,-0.4903325,-2.4434902916666665
1413394884520760576,0.020943951023931952,0.013264502315156905,0.087964594300514204,9.2019065833333329,0.26968287499999999,-2.6559677083333328
1413394884525760512,-0.0090757121103705145,0.024434609527920613,0.095644043009289262,9.5778281666666665,0.73549874999999998,-3.0237170833333331
1413394884530760448,-0.049567350756638949,0.039095375244672985,0.07749261878854824,9.471589458333332,0.196133,-2.8766173333333334
1413394884535760384,-0.040491638646268438,0.023736477827122883,0.084473935796525554,9.3816951666666668,-0.76818758333333337,-2.6396232916666666
1413394884540760576,-0.0034906585039886592,0.030019663134302467,0.067718774977379978,9.643205833333333,-0.8253930416666666,-2.6069344583333329
1413394884545760512,0.028623399732707,0.013264502315156905,0.057944931166211737,8.8505016249999997,-0.32688833333333334,-2.2637017083333331
1413394884550760448,0.0307177948351002,-0.0027925268031909274,0.08237954069413235,9.5860003749999994,0.16344416666666667,-2.9256505833333333
1413394884555760384,0.0048869219055841231,0.0307177948351002,0.089360857702109678,9.594172583333334,0.71915433333333334,-2.7458620000000002
1413394884560760576,-0.018849555921538759,0.035604716740684328,0.10122909661567112,9.2836286666666652,0.38409379166666668,-2.6886565416666666
1413394884565760512,-0.016057029118347832,0.023736477827122883,0.094945911308491532,9.8801998750000006,-0.51484912499999991,-2.8684451249999996
1413394884570760448,-0.0041887902047863905,0.043982297150257102,0.074001960284559576,9.4143839999999983,-0.57205458333333326,-2.4026292499999999
1413394884575760384,0.0076794487087750501,0.0153588974175501,0.069115038378975438,8.9322237083333338,-0.23699404166666665,-2.5415567916666664
1413394884580760576,0.0034906585039886592,0.020943951023931952,0.090058989402907408,9.7004112916666649,0.30237170833333332,-2.6804843333333328
1413394884585760512,-0.016057029118347832,0.027925268031909273,0.096342174710086978,9.2836286666666652,0.40043820833333332,-2.7622064166666664
1413394884590760448,-0.018151424220741029,0.022340214425527419,0.10471975511965977,9.2345954166666662,-0.5475379583333333,-2.4843513333333336
1413394884595760384,-0.0013962634015954637,0.018151424220741029,0.07819075048934597,9.8638554583333331,-0.71915433333333334,-2.827584083333333
1413394884600760576,0.020245819323134219,0.023736477827122883,0.056548667764616284,9.1365289166666663,-0.23699404166666665,-2.5170401666666664
1413394884605760512,0.018849555921538759,-0.0013962634015954637,0.061435589670200401,9.2591120416666666,0.15527195833333335,-2.623278875
1413394884610760448,0.0034906585039886592,0.034906585039886591,0.069813170079773182,9.7739611666666661,0.25333845833333329,-2.9011339583333333
1413394884615760384,-0.011868238913561441,0.038397243543875248,0.098436569812480182,8.9158792916666663,0.29419949999999995,-2.5088679583333335
1413394884620760576,-0.021642082724729686,0.0020943951023931952,0.11170107212763709,9.2836286666666652,-0.04903325,-2.7213453750000003
1413394884625760512,-0.017453292519943295,0.025132741228718346,0.080285145591739146,9.7576167499999986,-0.45764366666666667,-2.803067458333333
1413394884630760448,-0.008377580409572781,0.018151424220741029,0.068416906678177722,9.2999730833333327,-0.34323275000000003,-2.7213453750000003
1413394884635760384,-0.0034906585039886592,0.0062831853071795866,0.062133721370998138,9.4797616666666666,-0.21247741666666667,-2.6723121249999999
1413394884640760576,-0.0027925268031909274,0.046774823953448029,0.074700091985357306,9.6840668749999992,0.081722083333333334,-2.6968287499999999
1413394884645760512,0.0076794487087750501,0.035604716740684328,0.10890854532444616,8.834157208333334,-0.04903325,-2.5333845833333335
1413394884650760448,0.0097738438111682462,0.01117010721276371,0.096342174710086978,9.831166624999998,-0.32688833333333334,-2.827584083333333
1413394884655760384,0.010471975511965976,0.02722713633111154,0.07609635538695278,9.6268614166666655,-0.065377666666666667,-2.9338227916666666
1413394884660760576,0.0034906585039886592,0.02722713633111154,0.064228116473391328,9.3735229583333322,0.0081722083333333334,-2.7622064166666664
1413394884665760512,-0.011868238913561441,0.02583087292951608,0.058643062867009467,9.5614837499999989,0.13075533333333333,-2.8602729166666667
1413394884670760448,-0.0062831853071795866,0.048171087355043489,0.08307767239493008,9.4797616666666666,0.0081722083333333334,-2.6804843333333328
1413394884675760384,0.0097738438111682462,0.034208453339088861,0.11798425743481668,9.0384624166666665,-0.16344416666666667,-2.4761791249999998
1413394884680760576,-0.0020943951023931952,0.008377580409572781,0.094945911308491532,9.2345954166666662,-0.13892754166666665,-2.5415567916666664
1413394884685760512,-0.0097738438111682462,0.0076794487087750501,0.073303828583761846,9.6595502499999988,0.057205458333333334,-2.9256505833333333
1413394884690760448,-0.016057029118347832,0.023736477827122883,0.059341194567807204,9.4961060833333324,-0.23699404166666665,-2.7540342083333331
1413394884695760384,-0.016755160819145562,0.018151424220741029,0.055152404363020817,9.332661916666666,-0.44129924999999998,-2.5006957499999998
1413394884700760576,0.01117010721276371,0.032114058236695664,0.088662726001311934,9.4634172499999991,-0.22882183333333334,-2.6069344583333329
1413394884705760512,0.031415926535897934,0.027925268031909273,0.1096066770252439,9.1038400833333331,0.073549874999999987,-2.5252123749999997
1413394884710760448,0.0062831853071795866,0.012566370614359173,0.089360857702109678,9.2754564583333323,0.29419949999999995,-2.6151066666666667
1413394884715760384,-0.018849555921538759,0.021642082724729686,0.070511301780570912,9.8965442916666664,0.34323275000000003,-2.803067458333333
1413394884720760576,-0.041189770347066175,0.040491638646268438,0.057944931166211737,9.5287949166666657,-0.17978858333333333,-2.8847895416666667
1413394884725760512,-0.030019663134302467,0.029321531433504733,0.060039326268604934,9.1283567083333317,-0.71098212499999991,-2.3617682083333333
1413394884730760448,0.016755160819145562,0.031415926535897934,0.090757121103705138,9.7576167499999986,-0.57205458333333326,-2.9011339583333333
1413394884735760384,0.033510321638291124,0.043982297150257102,0.098436569812480182,8.9158792916666663,0.073549874999999987,-2.3944570416666666
1413394884740760576,0.012566370614359173,0.0013962634015954637,0.095644043009289262,9.1855621666666654,0.26968287499999999,-2.7213453750000003
1413394884745760512,-0.018151424220741029,0.0097738438111682462,0.068416906678177722,9.8801998750000006,0.21247741666666667,-2.9992004583333332
1413394884750760448,-0.031415926535897934,0.032114058236695664,0.056548667764616284,9.6105169999999998,-0.25333845833333329,-2.7131731666666665
1413394884755760384,-0.010471975511965976,0.011868238913561441,0.071209433481368656,9.0466346249999994,-0.7028099166666667,-2.4026292499999999
1413394884760760576,0.02583087292951608,0.0097738438111682462,0.097040306410884708,9.9210609166666668,-0.44129924999999998,-2.9174783749999995
1413394884765760512,0.033510321638291124,0.047472955654245766,0.1075122819228507,9.2918008749999998,0.53936574999999998,-2.7050009583333332
1413394884770760448,-0.0062831853071795866,0.014660765716752367,0.097738438111682452,8.9485681249999995,0.65377666666666667,-2.5333845833333335
1413394884775760384,-0.039095375244672985,0.018849555921538759,0.087266462599716474,9.7984777916666665,0.065377666666666667,-2.9746838333333332
1413394884780760576,-0.041887902047863905,0.036302848441482058,0.068416906678177722,9.2264232083333333,-0.66194887499999999,-2.5006957499999998
1413394884785760512,0.0,-0.0069813170079773184,0.071209433481368656,9.1692177499999996,-0.91528733333333334,-2.4434902916666665
1413394884790760448,0.039793506945470715,0.0055850536063818549,0.07819075048934597,9.7576167499999986,-0.43312704166666666,-2.9501672083333332
1413394884795760384,0.039793506945470715,0.048869219055841226,0.085870199198121014,9.5860003749999994,0.49850470833333332,-2.827584083333333
1413394884800760576,0.0013962634015954637,0.034906585039886591,0.095644043009289262,9.0466346249999994,0.8253930416666666,-2.6559677083333328
1413394884805760512,-0.037699111843077518,0.028623399732707,0.068416906678177722,9.7004112916666649,0.065377666666666667,-2.7458620000000002
1413394884810760448,-0.034906585039886591,0.035604716740684328,0.069813170079773182,9.0793234583333327,-0.64560445833333324,-2.5006957499999998
1413394884815760384,-0.0041887902047863905,0.0027925268031909274,0.071209433481368656,9.1365289166666663,-0.7028099166666667,-2.6396232916666666
1413394884820760576,0.033510321638291124,0.0153588974175501,0.090757121103705138,10.100849499999999,-0.032688833333333334,-3.0972669583333334
1413394884825760512,0.020245819323134219,0.067020643276582248,0.093549647906896058,9.2999730833333327,0.67829329166666663,-2.7050009583333332
1413394884830760448,-0.01117010721276371,0.037000980142279788,0.099832833214075656,9.0956678750000002,0.34323275000000003,-2.6151066666666667
1413394884835760384,-0.034208453339088861,0.023736477827122883,0.075398223686155036,9.4307284166666658,-0.098066500000000001,-2.6396232916666666
1413394884840760576,-0.022340214425527419,0.024434609527920613,0.069813170079773182,9.2754564583333323,-0.7028099166666667,-2.5252123749999997
1413394884845760512,0.0055850536063818549,-0.0048869219055841231,0.064926248174189058,9.3163174999999985,-0.79270420833333322,-2.7295175833333332
1413394884850760448,0.02722713633111154,0.022340214425527419,0.062133721370998138,9.9864385833333333,-0.10623870833333333,-2.9338227916666666
1413394884855760384,0.022340214425527419,0.057944931166211737,0.085172067497323284,9.2591120416666666,0.76001537499999994,-2.6723121249999999
1413394884860760576,-0.0097738438111682462,0.032114058236695664,0.090058989402907408,9.3571785416666664,0.32688833333333334,-2.623278875
1413394884865760512,-0.032114058236695664,0.036302848441482058,0.084473935796525554,9.3408341249999989,0.0081722083333333334,-2.3045627499999997
1413394884870760448,-0.024434609527920613,0.0013962634015954637,0.078888882190143686,8.9976013749999986,-0.45764366666666667,-2.5333845833333335
1413394884875760384,0.00069813170079773186,-0.008377580409572781,0.074001960284559576,9.6758946666666663,-0.89077070833333327,-2.7376897916666665
1413394884880760576,0.019547687622336492,0.023736477827122883,0.074700091985357306,9.8148222083333323,-0.46581587499999999,-2.9419949999999999
1413394884885760512,0.02652900463031381,0.047472955654245766,0.10262536001726656,9.1610455416666667,0.45764366666666667,-2.5905900416666663
1413394884890760448,0.0027925268031909274,0.023736477827122883,0.10332349171806432,9.1201845000000006,0.15527195833333335,-2.3944570416666666
1413394884895760384,-0.016755160819145562,0.023736477827122883,0.093549647906896058,9.1855621666666654,-0.16344416666666667,-2.4108014583333333
1413394884900760576,-0.013264502315156905,0.0020943951023931952,0.084473935796525554,9.1855621666666654,-0.30237170833333332,-2.5660734166666663
1413394884905760512,0.0020943951023931952,-0.0069813170079773184,0.07958701389094143,9.8066499999999994,-0.77635979166666658,-2.9992004583333332
1413394884910760448,0.0034906585039886592,0.032114058236695664,0.065624379874986788,9.594172583333334,-0.17978858333333333,-2.9256505833333333
1413394884915760384,0.013264502315156905,0.043982297150257102,0.084473935796525554,9.2754564583333323,0.10623870833333333,-2.5905900416666663
1413394884920760576,0.008377580409572781,0.029321531433504733,0.097040306410884708,9.3490063333333335,0.28602729166666663,-2.6477955
1413394884925760512,-0.0076794487087750501,0.034208453339088861,0.089360857702109678,9.1855621666666654,0.15527195833333335,-2.5660734166666663
1413394884930760448,-0.021642082724729686,0.010471975511965976,0.074001960284559576,9.2918008749999998,-0.20430520833333332,-2.7785508333333331
1413394884935760384,-0.010471975511965976,0.017453292519943295,0.073303828583761846,9.8066499999999994,-0.44129924999999998,-2.9746838333333332
1413394884940760576,-0.0020943951023931952,0.044680428851054839,0.064926248174189058,9.5451393333333332,-0.24516625,-2.8929617499999996
1413394884945760512,0.010471975511965976,0.045378560551852569,0.074700091985357306,9.2019065833333329,-0.11441091666666667,-2.5660734166666663
1413394884950760448,0.013962634015954637,0.023038346126325153,0.098436569812480182,9.4797616666666666,0.11441091666666667,-2.7376897916666665
1413394884955760384,0.0034906585039886592,0.039095375244672985,0.091455252804502868,9.242767624999999,0.10623870833333333,-2.4598347083333332
1413394884960760576,-0.012566370614359173,0.010471975511965976,0.085870199198121014,9.2836286666666652,0.040861041666666667,-2.8847895416666667
1413394884965760512,-0.013962634015954637,0.008377580409572781,0.085870199198121014,9.733100125,-0.016344416666666667,-3.0237170833333331
1413394884970760448,-0.0153588974175501,0.035604716740684328,0.067718774977379978,9.4470728333333334,-0.40861041666666664,-2.7948952499999997
1413394884975760384,-0.00069813170079773186,0.038397243543875248,0.074700091985357306,9.2836286666666652,-0.3350605416666666,-2.4925235416666665
1413394884980760576,0.017453292519943295,0.024434609527920613,0.093549647906896058,9.5124504999999999,-0.22064962499999999,-2.6723121249999999
1413394884985760512,0.022340214425527419,0.032812189937493394,0.092851516206098328,9.2672842499999994,0.04903325,-2.4026292499999999
1413394884990760448,0.0041887902047863905,0.017453292519943295,0.086568330898918744,9.4552450416666662,0.0081722083333333334,-2.7458620000000002
1413394884995760384,-0.0076794487087750501,0.023736477827122883,0.07749261878854824,9.471589458333332,0.21247741666666667,-2.6968287499999999
1413394885000760576,-0.021642082724729686,0.02583087292951608,0.07749261878854824,9.5042782916666653,-0.10623870833333333,-2.7131731666666665
1413394885005760512,-0.018849555921538759,0.032812189937493394,0.070511301780570912,9.5206227083333328,-0.35957716666666667,-2.7458620000000002
1413394885010760448,0.0,0.037699111843077518,0.07749261878854824,9.2345954166666662,-0.35140495833333335,-2.378112625
1413394885015760384,0.017453292519943295,0.02652900463031381,0.086568330898918744,9.3653507499999993,-0.17978858333333333,-2.6151066666666667
1413394885020760576,0.018849555921538759,0.016755160819145562,0.085870199198121014,9.2672842499999994,-0.040861041666666667,-2.5497290000000001
1413394885025760512,0.0048869219055841231,0.014660765716752367,0.084473935796525554,9.3816951666666668,0.24516625,-2.6314510833333329
1413394885030760448,-0.0090757121103705145,0.0055850536063818549,0.085870199198121014,9.6758946666666663,0.057205458333333334,-2.8766173333333334
1413394885035760384,-0.016755160819145562,0.02722713633111154,0.089360857702109678,9.5696559583333336,-0.21247741666666667,-2.7458620000000002
1413394885040760576,-0.008377580409572781,0.031415926535897934,0.08377580409572781,9.4389006250000005,-0.4494714583333333,-2.6151066666666667
1413394885045760512,0.0090757121103705145,0.016057029118347832,0.080983277292536876,9.3571785416666664,-0.37592158333333331,-2.5660734166666663
1413394885050760448,0.021642082724729686,0.021642082724729686,0.08307767239493008,9.4552450416666662,-0.21247741666666667,-2.6559677083333328
1413394885055760384,0.020245819323134219,0.0062831853071795866,0.087964594300514204,9.3816951666666668,0.057205458333333334,-2.7050009583333332
1413394885060760576,-0.0020943951023931952,0.014660765716752367,0.08307767239493008,9.3980395833333326,0.392266,-2.8112396666666668
1413394885065760512,-0.021642082724729686,0.023038346126325153,0.08237954069413235,9.6268614166666655,0.20430520833333332,-2.9501672083333332
1413394885070760448,-0.02722713633111154,0.034208453339088861,0.08168140899333462,9.6350336250000002,-0.196133,-2.7948952499999997
1413394885075760384,-0.013264502315156905,0.035604716740684328,0.071907565182166372,9.3980395833333326,-0.47398808333333331,-2.6559677083333328
1413394885080760576,0.0041887902047863905,0.032114058236695664,0.076794487087750496,9.1365289166666663,-0.35140495833333335,-2.4761791249999998
1413394885085760512,0.022340214425527419,0.019547687622336492,0.08237954069413235,9.193734375,-0.122583125,-2.6314510833333329
1413394885090760448,0.020943951023931952,0.011868238913561441,0.087964594300514204,9.5369671250000003,0.14709974999999997,-2.7376897916666665
1413394885095760384,-0.0041887902047863905,0.021642082724729686,0.08307767239493008,9.3081452916666674,0.40861041666666664,-2.6723121249999999
1413394885100760576,-0.022340214425527419,0.023038346126325153,0.087266462599716474,9.6758946666666663,0.10623870833333333,-2.9910282499999998
1413394885105760512,-0.027925268031909273,0.042586033748661642,0.084473935796525554,9.4797616666666666,-0.20430520833333332,-2.6968287499999999
1413394885110760448,-0.017453292519943295,0.034208453339088861,0.075398223686155036,9.242767624999999,-0.52302133333333334,-2.5742456250000001
1413394885115760384,0.0041887902047863905,0.018849555921538759,0.078888882190143686,9.193734375,-0.44129924999999998,-2.3944570416666666
1413394885120760576,0.022340214425527419,0.014660765716752367,0.07819075048934597,9.471589458333332,-0.392266,-2.6396232916666666
1413394885125760512,0.024434609527920613,0.020245819323134219,0.084473935796525554,9.5533115416666661,0.14709974999999997,-2.7540342083333331
1413394885130760448,0.0,0.021642082724729686,0.080285145591739146,9.3735229583333322,0.34323275000000003,-2.7458620000000002
1413394885135760384,-0.017453292519943295,0.034906585039886591,0.086568330898918744,9.8066499999999994,-0.016344416666666667,-2.9501672083333332
1413394885140760576,-0.02652900463031381,0.040491638646268438,0.078888882190143686,9.3898673749999997,-0.22882183333333334,-2.582417833333333
1413394885145760512,-0.013962634015954637,0.037000980142279788,0.074700091985357306,9.2754564583333323,-0.40043820833333332,-2.6559677083333328
1413394885150760448,0.0034906585039886592,0.024434609527920613,0.084473935796525554,9.0548068333333322,-0.4494714583333333,-2.2473572916666664
1413394885155760384,0.020245819323134219,0.0013962634015954637,0.085172067497323284,9.4634172499999991,-0.40043820833333332,-2.6151066666666667
1413394885160760576,0.020245819323134219,0.012566370614359173,0.08377580409572781,9.6922390833333321,0.11441091666666667,-2.7131731666666665
1413394885165760512,0.0048869219055841231,0.021642082724729686,0.08377580409572781,9.2918008749999998,0.392266,-2.5987622500000001
1413394885170760448,-0.0153588974175501,0.020245819323134219,0.087266462599716474,9.7249279166666671,0.14709974999999997,-2.9419949999999999
1413394885175760384,-0.025132741228718346,0.034906585039886591,0.078888882190143686,9.5287949166666657,-0.04903325,-2.6559677083333328
1413394885180760576,-0.013264502315156905,0.0307177948351002,0.084473935796525554,9.3735229583333322,-0.35957716666666667,-2.7050009583333332
1413394885185760512,0.00069813170079773186,0.0307177948351002,0.074001960284559576,8.9812569583333328,-0.44129924999999998,-2.3699404166666667
1413394885190760448,0.018849555921538759,0.0013962634015954637,0.086568330898918744,9.6105169999999998,-0.40861041666666664,-2.7948952499999997
1413394885195760384,0.023038346126325153,0.013962634015954637,0.08377580409572781,9.5287949166666657,0.16344416666666667,-2.7295175833333332
1413394885200760576,0.0062831853071795866,0.020943951023931952,0.08307767239493008,9.2100787916666658,0.3105439166666667,-2.7213453750000003
1413394885205760512,-0.020943951023931952,0.013962634015954637,0.087266462599716474,9.5451393333333332,0.26151066666666667,-2.9338227916666666
1413394885210760448,-0.02583087292951608,0.021642082724729686,0.07749261878854824,9.6105169999999998,-0.024516625,-2.6886565416666666
1413394885215760384,-0.023736477827122883,0.035604716740684328,0.07958701389094143,9.5369671250000003,-0.31871612500000002,-2.9011339583333333
1413394885220760576,-0.0097738438111682462,0.037699111843077518,0.074700091985357306,8.9158792916666663,-0.56388237500000005,-2.2963905416666663
1413394885225760512,0.018849555921538759,0.0076794487087750501,0.087964594300514204,9.4307284166666658,-0.50667691666666659,-2.6968287499999999
1413394885230760448,0.024434609527920613,0.013264502315156905,0.074001960284559576,9.6023447916666651,-0.21247741666666667,-2.6314510833333329
1413394885235760384,0.023038346126325153,0.020245819323134219,0.085172067497323284,9.4961060833333324,0.26151066666666667,-2.8929617499999996
1413394885240760576,0.0013962634015954637,0.025132741228718346,0.085870199198121014,9.3653507499999993,0.40043820833333332,-2.8112396666666668
1413394885245760512,-0.023736477827122883,0.032114058236695664,0.084473935796525554,9.6758946666666663,0.14709974999999997,-2.8112396666666668
1413394885250760448,-0.02722713633111154,0.045378560551852569,0.080285145591739146,9.5042782916666653,-0.21247741666666667,-2.9093061666666666
1413394885255760384,-0.013962634015954637,0.037699111843077518,0.076794487087750496,8.9158792916666663,-0.55571016666666662,-2.4516624999999999
1413394885260760576,0.0097738438111682462,0.0090757121103705145,0.086568330898918744,9.1855621666666654,-0.4494714583333333,-2.5742456250000001
1413394885265760512,0.018151424220741029,0.010471975511965976,0.074001960284559576,9.5614837499999989,-0.35957716666666667,-2.6723121249999999
1413394885270760448,0.025132741228718346,0.013962634015954637,0.087964594300514204,9.5696559583333336,0.081722083333333334,-2.7622064166666664
1413394885275760384,0.0055850536063818549,0.020943951023931952,0.087266462599716474,9.5042782916666653,0.30237170833333332,-2.6314510833333329
1413394885280760576,-0.018849555921538759,0.030019663134302467,0.080285145591739146,9.5860003749999994,0.29419949999999995,-2.7622064166666664
1413394885285760512,-0.030019663134302467,0.032114058236695664,0.074001960284559576,9.5614837499999989,-0.065377666666666667,-2.7622064166666664
1413394885290760448,-0.0153588974175501,0.041887902047863905,0.085172067497323284,9.242767624999999,-0.34323275000000003,-2.5088679583333335
1413394885295760384,-0.0027925268031909274,0.02722713633111154,0.076794487087750496,9.1610455416666667,-0.47398808333333331,-2.5252123749999997
1413394885300760576,0.018151424220741029,0.013264502315156905,0.084473935796525554,9.3980395833333326,-0.4494714583333333,-2.5497290000000001
1413394885305760512,0.025132741228718346,0.008377580409572781,0.085172067497323284,9.471589458333332,0.024516625,-2.6723121249999999
1413394885310760448,0.01117010721276371,0.020245819323134219,0.089360857702109678,9.5533115416666661,0.43312704166666666,-2.8194118749999997
1413394885315760384,-0.017453292519943295,0.017453292519943295,0.080983277292536876,9.3980395833333326,0.26968287499999999,-2.7376897916666665
1413394885320760576,-0.02722713633111154,0.02652900463031381,0.08237954069413235,9.7984777916666665,-0.098066500000000001,-2.9338227916666666
1413394885325760512,-0.016755160819145562,0.043284165449459372,0.087964594300514204,9.332661916666666,-0.196133,-2.557901208333333
1413394885330760448,-0.0027925268031909274,0.035604716740684328,0.084473935796525554,9.2345954166666662,-0.47398808333333331,-2.5415567916666664
1413394885335760384,0.0097738438111682462,0.013264502315156905,0.071209433481368656,9.1120122916666659,-0.50667691666666659,-2.4925235416666665
1413394885340760576,0.02722713633111154,0.0027925268031909274,0.08168140899333462,9.5533115416666661,-0.26968287499999999,-2.7458620000000002
1413394885345760512,0.02652900463031381,0.0097738438111682462,0.087266462599716474,9.3081452916666674,0.26151066666666667,-2.7785508333333331
1413394885350760448,0.00069813170079773186,0.027925268031909273,0.085870199198121014,9.5533115416666661,0.31871612500000002,-2.5987622500000001
1413394885355760384,-0.025132741228718346,0.022340214425527419,0.08307767239493008,9.7167557083333325,0.0081722083333333334,-2.9338227916666666
1413394885360760576,-0.027925268031909273,0.05375614096142535,0.085870199198121014,9.5206227083333328,-0.22882183333333334,-2.7376897916666665
1413394885365760512,-0.011868238913561441,0.041189770347066175,0.092153384505300612,9.1201845000000006,-0.24516625,-2.6069344583333329
1413394885370760448,-0.0041887902047863905,0.027925268031909273,0.07609635538695278,9.0466346249999994,-0.53119354166666666,-2.3535959999999996
1413394885375760384,0.018151424220741029,0.00069813170079773186,0.086568330898918744,9.3735229583333322,-0.4494714583333333,-2.6314510833333329
1413394885380760576,0.032812189937493394,0.012566370614359173,0.087266462599716474,9.471589458333332,-0.21247741666666667,-2.6886565416666666
1413394885385760512,0.016057029118347832,0.018151424220741029,0.087964594300514204,9.5614837499999989,0.4494714583333333,-2.8684451249999996
1413394885390760448,-0.012566370614359173,0.02652900463031381,0.078888882190143686,9.5042782916666653,0.34323275000000003,-2.5987622500000001
1413394885395760384,-0.02722713633111154,0.035604716740684328,0.074001960284559576,9.7412723333333329,-0.0081722083333333334,-2.8684451249999996
1413394885400760576,-0.020943951023931952,0.041887902047863905,0.08168140899333462,9.2836286666666652,-0.15527195833333335,-2.623278875
1413394885405760512,-0.016755160819145562,0.032114058236695664,0.08237954069413235,9.2672842499999994,-0.26151066666666667,-2.6641399166666666
1413394885410760448,-0.0041887902047863905,0.024434609527920613,0.078888882190143686,9.0629790416666669,-0.55571016666666662,-2.378112625
1413394885415760384,0.018849555921538759,0.0055850536063818549,0.084473935796525554,9.422556208333333,-0.4903325,-2.7622064166666664
1413394885420760576,0.02652900463031381,0.0090757121103705145,0.087266462599716474,9.5206227083333328,0.10623870833333333,-2.7213453750000003
1413394885425760512,0.0048869219055841231,0.013264502315156905,0.085870199198121014,9.5124504999999999,0.46581587499999999,-2.7376897916666665
1413394885430760448,-0.021642082724729686,0.027925268031909273,0.072605696882964116,9.6840668749999992,0.10623870833333333,-2.8439284999999996
1413394885435760384,-0.018849555921538759,0.034906585039886591,0.080983277292536876,9.5124504999999999,-0.032688833333333334,-2.852100708333333
1413394885440760576,-0.013264502315156905,0.034906585039886591,0.078888882190143686,9.3571785416666664,-0.11441091666666667,-2.7213453750000003
1413394885445760512,-0.01117010721276371,0.038397243543875248,0.084473935796525554,9.2345954166666662,-0.30237170833333332,-2.6069344583333329
1413394885450760448,0.0013962634015954637,0.014660765716752367,0.076794487087750496,9.2019065833333329,-0.57205458333333326,-2.6151066666666667
1413394885455760384,0.022340214425527419,0.0048869219055841231,0.087266462599716474,9.3653507499999993,-0.3105439166666667,-2.6069344583333329
1413394885460760576,0.017453292519943295,0.012566370614359173,0.08307767239493008,9.4634172499999991,0.27785508333333331,-2.6723121249999999
1413394885465760512,-0.0020943951023931952,0.016057029118347832,0.08237954069413235,9.5533115416666661,0.24516625,-2.7050009583333332
1413394885470760448,-0.020943951023931952,0.032114058236695664,0.074001960284559576,9.5369671250000003,0.0,-2.6641399166666666
1413394885475760384,-0.013264502315156905,0.032812189937493394,0.08237954069413235,9.4307284166666658,-0.13075533333333333,-2.6968287499999999
1413394885480760576,-0.0076794487087750501,0.027925268031909273,0.08307767239493008,9.2999730833333327,-0.20430520833333332,-2.6968287499999999
1413394885485760512,-0.0013962634015954637,0.031415926535897934,0.085870199198121014,9.2591120416666666,-0.37592158333333331,-2.5006957499999998
1413394885490760448,0.01117010721276371,0.0076794487087750501,0.091455252804502868,9.1773899583333325,-0.44129924999999998,-2.5987622500000001
1413394885495760384,0.021642082724729686,0.0076794487087750501,0.092851516206098328,9.5206227083333328,-0.17978858333333333,-2.7867230416666664
1413394885500760576,0.01117010721276371,0.0069813170079773184,0.085172067497323284,9.3898673749999997,0.22882183333333334,-2.8439284999999996
1413394885505760512,-0.0048869219055841231,0.024434609527920613,0.07749261878854824,9.5533115416666661,0.20430520833333332,-2.7376897916666665
1413394885510760448,-0.014660765716752367,0.039793506945470715,0.074700091985357306,9.6268614166666655,0.089894291666666667,-2.7295175833333332
1413394885515760384,-0.013264502315156905,0.034906585039886591,0.07749261878854824,9.4307284166666658,-0.20430520833333332,-2.7785508333333331
1413394885520760576,-0.01117010721276371,0.030019663134302467,0.07609635538695278,9.2591120416666666,-0.26968287499999999,-2.7050009583333332
1413394885525760512,0.0055850536063818549,0.032812189937493394,0.08168140899333462,9.3163174999999985,-0.27785508333333331,-2.6886565416666666
1413394885530760448,0.011868238913561441,0.013962634015954637,0.087266462599716474,9.1120122916666659,-0.17161637500000002,-2.5660734166666663
1413394885535760384,0.0090757121103705145,0.0055850536063818549,0.085172067497323284,9.6513780416666659,-0.16344416666666667,-2.8194118749999997
1413394885540760576,0.0041887902047863905,0.021642082724729686,0.076794487087750496,9.5451393333333332,0.122583125,-2.6314510833333329
1413394885545760512,-0.0055850536063818549,0.0307177948351002,0.074700091985357306,9.5860003749999994,0.25333845833333329,-2.8602729166666667
1413394885550760448,-0.018849555921538759,0.030019663134302467,0.07749261878854824,9.3735229583333322,0.22064962499999999,-2.5905900416666663
1413394885555760384,-0.018151424220741029,0.02652900463031381,0.071907565182166372,9.5533115416666661,-0.24516625,-2.803067458333333
1413394885560760576,-0.0055850536063818549,0.032114058236695664,0.08307767239493008,9.193734375,-0.36774937499999999,-2.5987622500000001
1413394885565760512,0.0055850536063818549,0.032812189937493394,0.090058989402907408,9.332661916666666,-0.27785508333333331,-2.5497290000000001
1413394885570760448,0.008377580409572781,0.017453292519943295,0.098436569812480182,9.1692177499999996,-0.25333845833333329,-2.3617682083333333
1413394885575760384,0.011868238913561441,0.010471975511965976,0.075398223686155036,9.7739611666666661,-0.31871612500000002,-2.7376897916666665
1413394885580760576,0.0090757121103705145,0.021642082724729686,0.07609635538695278,9.4961060833333324,0.17161637500000002,-2.7050009583333332
1413394885585760512,-0.01117010721276371,0.025132741228718346,0.071907565182166372,9.594172583333334,0.30237170833333332,-2.8602729166666667
1413394885590760448,-0.021642082724729686,0.037000980142279788,0.07609635538695278,9.4634172499999991,0.10623870833333333,-2.6396232916666666
1413394885595760384,-0.016755160819145562,0.030019663134302467,0.074001960284559576,9.422556208333333,-0.35957716666666667,-2.6641399166666666
1413394885600760576,-0.0027925268031909274,0.030019663134302467,0.090757121103705138,9.2918008749999998,-0.17978858333333333,-2.6069344583333329
1413394885605760512,0.0020943951023931952,0.023736477827122883,0.088662726001311934,9.2591120416666666,-0.21247741666666667,-2.6396232916666666
1413394885610760448,0.008377580409572781,0.013264502315156905,0.094945911308491532,9.3163174999999985,-0.40043820833333332,-2.5660734166666663
1413394885615760384,0.01117010721276371,0.0062831853071795866,0.078888882190143686,9.4307284166666658,-0.30237170833333332,-2.6886565416666666
1413394885620760576,0.011868238913561441,0.012566370614359173,0.080983277292536876,9.5369671250000003,0.122583125,-2.7540342083333331
1413394885625760512,-0.0041887902047863905,0.028623399732707,0.07819075048934597,9.5124504999999999,0.11441091666666667,-2.7867230416666664
1413394885630760448,-0.016057029118347832,0.02583087292951608,0.08307767239493008,9.4062117916666654,-0.032688833333333334,-2.6723121249999999
1413394885635760384,-0.008377580409572781,0.025132741228718346,0.086568330898918744,9.4470728333333334,-0.31871612500000002,-2.7948952499999997
1413394885640760576,-0.0013962634015954637,0.029321531433504733,0.092153384505300612,9.2672842499999994,-0.17161637500000002,-2.6641399166666666
1413394885645760512,-0.0013962634015954637,0.018849555921538759,0.095644043009289262,9.3816951666666668,-0.27785508333333331,-2.5415567916666664
1413394885650760448,0.0041887902047863905,0.01117010721276371,0.093549647906896058,9.3898673749999997,-0.3105439166666667,-2.4680069166666665
1413394885655760384,0.0097738438111682462,0.012566370614359173,0.07749261878854824,9.471589458333332,-0.26968287499999999,-2.6723121249999999
1413394885660760576,0.0090757121103705145,0.014660765716752367,0.074001960284559576,9.5206227083333328,0.122583125,-2.7458620000000002
1413394885665760512,-0.0076794487087750501,0.031415926535897934,0.071209433481368656,9.6922390833333321,0.21247741666666667,-2.8602729166666667
1413394885670760448,-0.016755160819145562,0.039095375244672985,0.075398223686155036,9.2182509999999986,0.0,-2.5497290000000001
1413394885675760384,-0.014660765716752367,0.02722713633111154,0.08168140899333462,9.5451393333333332,-0.20430520833333332,-2.7785508333333331
1413394885680760576,-0.0097738438111682462,0.027925268031909273,0.078888882190143686,9.2100787916666658,-0.13075533333333333,-2.6559677083333328
1413394885685760512,0.0013962634015954637,0.023038346126325153,0.087266462599716474,9.2182509999999986,-0.24516625,-2.582417833333333
1413394885690760448,0.010471975511965976,0.025132741228718346,0.08168140899333462,9.3408341249999989,-0.37592158333333331,-2.5170401666666664
1413394885695760384,0.0069813170079773184,0.012566370614359173,0.07609635538695278,9.5533115416666661,-0.10623870833333333,-2.7458620000000002
1413394885700760576,0.0027925268031909274,0.0153588974175501,0.078888882190143686,9.5860003749999994,0.122583125,-2.6968287499999999
1413394885705760512,-0.0069813170079773184,0.02722713633111154,0.073303828583761846,9.3980395833333326,0.057205458333333334,-2.6477955
1413394885710760448,-0.012566370614359173,0.028623399732707,0.074700091985357306,9.3816951666666668,-0.18796079166666665,-2.7867230416666664
1413394885715760384,-0.011868238913561441,0.028623399732707,0.085172067497323284,9.4634172499999991,-0.098066500000000001,-2.7131731666666665
1413394885720760576,-0.0013962634015954637,0.024434609527920613,0.090058989402907408,9.2672842499999994,-0.196133,-2.6396232916666666
1413394885725760512,0.0,0.02722713633111154,0.088662726001311934,9.2999730833333327,-0.22882183333333334,-2.4598347083333332
1413394885730760448,0.0097738438111682462,0.018849555921538759,0.087266462599716474,9.4143839999999983,-0.15527195833333335,-2.6723121249999999
1413394885735760384,0.0027925268031909274,0.020943951023931952,0.07609635538695278,9.4470728333333334,0.040861041666666667,-2.557901208333333
1413394885740760576,-0.0013962634015954637,0.012566370614359173,0.08237954069413235,9.471589458333332,0.0,-2.7131731666666665
1413394885745760512,-0.0090757121103705145,0.031415926535897934,0.084473935796525554,9.5124504999999999,-0.016344416666666667,-2.6069344583333329
1413394885750760448,-0.0153588974175501,0.028623399732707,0.080983277292536876,9.5124504999999999,-0.098066500000000001,-2.8357562916666668
1413394885755760384,-0.010471975511965976,0.029321531433504733,0.080285145591739146,9.2754564583333323,-0.11441091666666667,-2.5987622500000001
1413394885760760576,0.00069813170079773186,0.023038346126325153,0.089360857702109678,9.4797616666666666,-0.36774937499999999,-2.6559677083333328
1413394885765760512,0.0076794487087750501,0.023736477827122883,0.090058989402907408,9.4062117916666654,-0.16344416666666667,-2.6723121249999999
1413394885770760448,0.0076794487087750501,0.023736477827122883,0.080285145591739146,9.6268614166666655,-0.016344416666666667,-2.827584083333333
1413394885775760384,-0.0041887902047863905,0.02583087292951608,0.078888882190143686,9.4470728333333334,0.040861041666666667,-2.6641399166666666
1413394885780760576,-0.0034906585039886592,0.013962634015954637,0.076794487087750496,9.2591120416666666,-0.16344416666666667,-2.6396232916666666
1413394885785760512,0.0,0.019547687622336492,0.088662726001311934,9.4879338749999995,0.081722083333333334,-2.7867230416666664
1413394885790760448,-0.0090757121103705145,0.025132741228718346,0.078888882190143686,9.5451393333333332,0.065377666666666667,-2.9583394166666666
1413394885795760384,-0.01117010721276371,0.029321531433504733,0.090757121103705138,9.2019065833333329,-0.196133,-2.4925235416666665
1413394885800760576,0.0041887902047863905,0.017453292519943295,0.088662726001311934,9.3816951666666668,-0.36774937499999999,-2.7131731666666665
1413394885805760512,0.0090757121103705145,0.028623399732707,0.08168140899333462,9.2509398333333337,-0.10623870833333333,-2.6559677083333328
1413394885810760448,-0.0013962634015954637,0.0097738438111682462,0.085172067497323284,9.3816951666666668,0.16344416666666667,-2.7703786249999998
